"Time (s);""Linear Acceleration x (m/s^2)"";""Linear Acceleration y (m/s^2)"";""Linear Acceleration z (m/s^2)"";""Absolute acceleration (m/s^2)""",Time (s),Linear Acceleration x (m/s^2),Linear Acceleration y (m/s^2),Linear Acceleration z (m/s^2),Absolute acceleration (m/s^2)
3.379208334E-3;-2.845331150E-1;-3.874423563E-1;-7.084544957E-1;8.561416036E-1,,,,,
1.339820834E-2;-4.926600784E-1;-1.947093576E-1;-1.088469719E0;1.210533773E0,,,,,
2.341620834E-2;-4.226788473E-1;3.868131959E-1;-6.501799750E-1;8.666117103E-1,,,,,
3.343420833E-2;-1.740505600E-1;8.566378507E-1;-7.602491319E-1;1.158490720E0,,,,,
4.345220833E-2;3.568988407E-1;1.355739222E0;-1.135494781E0;1.804093683E0,,,,,
5.347020834E-2;2.043732263E0;1.226327183E0;-1.613773048E0;2.878364705E0,,,,,
6.348820834E-2;4.175747543E0;4.458633497E-1;-2.691099728E0;4.987752942E0,,,,,
7.351054167E-2;4.954782609E0;-6.385144874E-1;-2.737900842E0;5.696812484E0,,,,,
8.352854167E-2;4.923510531E0;-1.755839338E0;-2.591323425E0;5.834285288E0,,,,,
9.354654167E-2;4.277091485E0;-2.545840858E0;-1.634001490E0;5.238776394E0,,,,,
1.035645417E-1;3.756071241E0;-3.356596777E0;-1.174025009E0;5.172344518E0,,,,,
1.135825417E-1;2.789948078E0;-3.218978463E0;-1.369856155E0;4.474610431E0,,,,,
1.236005417E-1;2.735914543E0;-4.031566899E0;-1.691562066E0;5.157532576E0,,,,,
1.336195417E-1;3.445191742E0;-4.061031019E0;-1.551209010E0;5.546852122E0,,,,,
1.436375417E-1;4.438986268E0;-2.442188728E0;-1.135609094E0;5.192156862E0,,,,,
1.536555417E-1;4.944495018E0;-1.292084678E0;-2.569289947E0;5.720031873E0,,,,,
1.636735417E-1;5.056902477E0;-1.530110209E0;-3.229520116E0;6.192196709E0,,,,,
1.736915417E-1;4.525160193E0;-2.070000295E0;-2.238324384E0;5.456379023E0,,,,,
1.837095417E-1;2.616883943E0;-1.564083409E0;-6.561318558E-1;3.118484808E0,,,,,
1.937275417E-1;1.524450982E-1;-1.708223122E0;-2.527594621E0;3.054504921E0,,,,,
2.037465417E-1;-2.651680723E0;-4.911585134E-1;-3.933026698E0;4.768788772E0,,,,,
2.137645417E-1;-5.426401482E0;1.236449883E0;-2.236726925E0;5.998132101E0,,,,,
2.237825417E-1;-6.178800727E0;3.207829285E0;1.501635439E0;7.121984003E0,,,,,
2.338005417E-1;-5.738684313E0;4.973030015E0;3.939224746E0;8.554590392E0,,,,,
2.438185417E-1;-5.475616912E0;5.673845124E0;5.635003824E0;9.691654510E0,,,,,
2.538365417E-1;-5.165326812E0;5.844792566E0;5.840631688E0;9.744494842E0,,,,,
2.638555417E-1;-5.115075256E0;4.705442424E0;4.845805128E0;8.472721558E0,,,,,
2.738735417E-1;-4.763110880E0;3.718758988E0;4.135661956E0;7.322574239E0,,,,,
2.838915417E-1;-3.817095707E0;2.922697999E0;4.144774257E0;6.347561490E0,,,,,
2.939095417E-1;-2.950529577E0;1.823394852E0;3.324744069E0;4.804614105E0,,,,,
3.039275417E-1;-3.136912499E0;5.001579630E-1;2.978267891E0;4.354360762E0,,,,,
3.139455417E-1;-3.711253502E0;-9.209297410E-1;2.658614059E0;4.657224803E0,,,,,
3.239645417E-1;-3.940200647E0;-2.722910920E0;2.306562853E0;5.315981302E0,,,,,
3.339825417E-1;-4.478448542E0;-3.279336639E0;1.665328533E0;5.795159123E0,,,,,
3.440005417E-1;-5.011993521E0;-3.078396196E0;7.348280695E-1;5.927611196E0,,,,,
3.540185417E-1;-9.504888779E-1;-2.731243494E0;-9.321724749E-1;3.038431447E0,,,,,
3.640365417E-1;7.856641132E0;1.129024252E-1;-2.766383214E0;8.330212058E0,,,,,
3.740545417E-1;1.181496581E1;7.040343515E0;-4.243277621E0;1.439323657E1,,,,,
3.840735417E-1;8.886662668E0;8.428173718E0;4.418473943E0;1.302036089E1,,,,,
3.940915417E-1;5.105198139E0;6.145244726E0;9.713426217E0;1.257687281E1,,,,,
4.041095417E-1;3.180887654E0;4.782515450E0;8.304471778E0;1.009726457E1,,,,,
4.141275417E-1;-8.467113250E-1;3.436408639E-2;9.293372769E0;9.331927903E0,,,,,
4.241455417E-1;-2.365064830E0;-3.626658325E0;8.444850562E0;9.490083417E0,,,,,
4.341635417E-1;-2.065947005E0;-5.777111630E0;1.446479530E0;6.303606812E0,,,,,
4.441825417E-1;-2.812523008E0;-8.041368708E0;-8.079783161E0;1.174124322E1,,,,,
4.542005417E-1;-3.319609337E0;-7.733074847E0;-1.210091220E1;1.473948197E1,,,,,
4.642185417E-1;-3.208123984E0;-4.011800972E0;-5.315734155E0;7.392133396E0,,,,,
4.742365417E-1;-1.952510437E0;8.459570342E-1;-5.501680291E-1;2.197868324E0,,,,,
4.842545417E-1;-1.384638793E0;3.175274912E0;-4.617838562E-3;3.464046286E0,,,,,
4.942725417E-1;-1.032545779E0;4.051485440E0;5.544996464E-1;4.217600611E0,,,,,
5.042915417E-1;-1.220282916E0;4.008041212E0;1.850306954E0;4.580078665E0,,,,,
5.143095417E-1;-6.339024961E-2;3.349560530E0;2.516279089E0;4.189896720E0,,,,,
5.243275417E-1;9.708623314E-1;1.407722431E0;2.674296584E0;3.174290209E0,,,,,
5.343455417E-1;1.895470263E0;4.442094648E-1;2.036540919E0;2.817379719E0,,,,,
5.443635417E-1;2.641532881E0;5.029120016E-1;7.263879061E-1;2.785364578E0,,,,,
5.543815417E-1;2.086352034E0;5.603456926E-1;5.267265415E-1;2.223576613E0,,,,,
5.643995417E-1;1.166023094E0;7.574910003E-1;4.367928565E-1;1.457460281E0,,,,,
5.744185417E-1;4.832296890E-1;7.648660934E-1;-3.390215635E-1;9.661608012E-1,,,,,
5.844365417E-1;-3.453307092E-2;1.443039613E0;-8.159624259E-1;1.658116564E0,,,,,
5.944545417E-1;-3.710572886E-1;2.527497557E0;-8.466193776E-1;2.691224960E0,,,,,
6.044725417E-1;-1.268787324E-1;1.853446909E0;-9.274232201E-1;2.076409759E0,,,,,
6.144905417E-1;4.156183344E-1;3.594640142E-1;-6.479637341E-1;8.495940078E-1,,,,,
6.245085417E-1;8.366786724E-1;-4.534591752E-1;2.326046506E-1;9.796741030E-1,,,,,
6.345275417E-1;7.338056839E-1;-3.439373177E-1;1.149112508E0;1.406137694E0,,,,,
6.445455417E-1;2.863644630E-1;6.754259133E-1;2.048914651E0;2.176294101E0,,,,,
6.545635417E-1;-1.510920525E-3;8.656451941E-2;1.744803303E0;1.746949990E0,,,,,
6.645815417E-1;-3.111841393E-1;8.525825143E-3;1.357655647E0;1.392888048E0,,,,,
6.745995417E-1;-6.610926336E-1;4.474084765E-1;2.639908232E-2;7.986956408E-1,,,,,
6.846175417E-1;-5.461357892E-1;7.259709996E-1;-1.473422331E0;1.730974164E0,,,,,
6.946365417E-1;1.002072430E-1;1.059470453E0;-2.064650677E0;2.322778843E0,,,,,
7.046545417E-1;1.031092161E0;1.147787967E0;-2.060764618E0;2.574357992E0,,,,,
7.146725417E-1;1.843096753E0;1.416673933E0;-1.429951644E0;2.729236593E0,,,,,
7.246905417E-1;2.311076903E0;1.355315006E0;-5.387833540E-1;2.732808578E0,,,,,
7.347085417E-1;2.871961709E0;1.045655821E0;5.073781780E-1;3.098224132E0,,,,,
7.447265417E-1;2.994839192E0;1.118832555E0;1.244786989E0;3.430793308E0,,,,,
7.547455417E-1;2.681463516E0;9.714961696E-1;1.489153680E0;3.217394921E0,,,,,
7.647635417E-1;2.327674225E0;9.856803453E-1;1.357930466E0;2.869426457E0,,,,,
7.747815417E-1;2.069029657E0;8.644184482E-1;1.181657964E0;2.534643667E0,,,,,
7.847995417E-1;2.046989747E0;6.229728806E-1;8.989100770E-1;2.320840702E0,,,,,
7.948175417E-1;2.132849092E0;1.646201706E-1;4.298801319E-1;2.181958290E0,,,,,
8.048355417E-1;2.475942657E0;-3.100070947E-1;1.179545657E-1;2.498061192E0,,,,,
8.148545417E-1;3.290507745E0;-8.609036869E-1;-1.721888065E-1;3.405619673E0,,,,,
8.248725417E-1;4.041312454E0;-1.414421001E0;-5.231701919E-1;4.313525260E0,,,,,
8.348905417E-1;4.435158681E0;-1.901546105E0;-9.643461943E-1;4.921023643E0,,,,,
8.449085417E-1;4.467033023E0;-2.071426431E0;-1.079980658E0;5.040986977E0,,,,,
8.549265417E-1;4.377082381E0;-1.621705965E0;-1.099903218E0;4.795682172E0,,,,,
8.649445417E-1;3.799581542E0;-1.316277825E0;-1.487427582E0;4.287405745E0,,,,,
8.749635417E-1;2.277581713E0;-1.291493232E0;-1.628330276E0;3.083308729E0,,,,,
8.849815417E-1;5.853495562E-1;-1.237452680E0;-2.342312729E0;2.712996897E0,,,,,
8.949995417E-1;-6.669322479E-1;-1.155853617E0;-1.971713862E0;2.380851058E0,,,,,
9.050175417E-1;-9.358848721E-1;-5.180580443E-1;1.967226271E-1;1.087641680E0,,,,,
9.150355417E-1;-1.283419397E0;-4.379719475E-1;9.962697990E-1;1.682717531E0,,,,,
9.250535417E-1;-1.325788906E0;8.594354510E-2;-2.052594888E0;2.445045663E0,,,,,
9.350725417E-1;-3.014317437E0;-2.584686835E0;-1.138472768E0;4.130718568E0,,,,,
9.450905417E-1;-4.746372056E0;-7.031988428E0;5.583857059E-1;8.502276374E0,,,,,
9.551085417E-1;-4.508573982E0;-7.180315332E0;-2.684245037E0;8.893218711E0,,,,,
9.651265417E-1;-4.275031511E0;-4.587389771E0;-3.293453572E0;7.082857880E0,,,,,
9.751445417E-1;-4.099315664E0;-2.655575554E0;-1.764682521E0;5.193320213E0,,,,,
9.851625417E-1;-3.062953992E0;-1.527820732E0;4.780005971E-1;3.456068274E0,,,,,
9.951815417E-1;-1.855485249E0;-1.605761778E0;-9.455656685E-2;2.455654157E0,,,,,
1.005199542E0;-1.389327675E0;-1.726916671E0;-5.992367665E-1;2.295987212E0,,,,,
1.015217542E0;-9.772024673E-1;-1.267663490E0;-5.945239107E-1;1.707440794E0,,,,,
1.025235542E0;-3.049387282E-1;-2.086039208E0;4.620656919E-1;2.158252049E0,,,,,
1.035253542E0;7.642603219E-1;-7.491762596E-1;-1.200457493E-1;1.076926130E0,,,,,
1.045271542E0;1.519815894E0;-4.293780023E-1;1.731395638E-1;1.588767802E0,,,,,
1.055289542E0;2.140959765E0;-1.317974102E-1;5.527547642E-1;2.215088509E0,,,,,
1.065308542E0;2.570288066E0;8.381217653E-1;1.057981094E0;2.903128111E0,,,,,
1.075323667E0;2.603686777E0;2.885326398E0;1.755958622E0;4.264702092E0,,,,,
1.085341667E0;2.626156458E0;5.326881287E0;2.750270627E0;6.544948472E0,,,,,
1.095359667E0;2.858368687E0;5.475357295E0;2.991126795E0;6.862699801E0,,,,,
1.105377667E0;3.184876624E0;3.062890842E0;2.048657373E0;4.870496531E0,,,,,
1.115396667E0;3.419061120E0;1.086165623E0;1.672529379E0;3.958167407E0,,,,,
1.125414667E0;2.996069446E0;-6.002438763E-1;1.565738171E0;3.433403684E0,,,,,
1.135432667E0;1.933129256E0;-1.958635395E0;1.490300903E0;3.129574750E0,,,,,
1.145450667E0;1.653920031E-1;-3.008185754E0;1.136036891E0;3.219800594E0,,,,,
1.155468667E0;-1.693004574E0;-3.797736745E0;6.018704255E-1;4.201347032E0,,,,,
1.165486667E0;-3.249383107E0;-3.774206965E0;-1.511610496E-1;4.982567456E0,,,,,
1.175504667E0;-4.455515177E0;-2.920371100E0;-8.759210178E-1;5.398835105E0,,,,,
1.185523667E0;-5.324281615E0;-1.861194470E0;-9.713628531E-1;5.723247799E0,,,,,
1.195541667E0;-5.641633397E0;-9.436540675E-1;-8.100206316E-1;5.777079177E0,,,,,
1.205559667E0;-5.385583239E0;-4.095860544E-1;-8.958331259E-1;5.474923246E0,,,,,
1.215577667E0;-4.709999451E0;7.808517963E-2;-7.006413730E-1;4.762466846E0,,,,,
1.225595667E0;-3.925555710E0;7.902471024E-1;-1.180422740E-1;4.006046941E0,,,,,
1.235614667E0;-3.342345650E0;1.732456615E0;2.982102641E-1;3.776454651E0,,,,,
1.245632667E0;-2.990090083E0;2.649600869E0;-3.762098551E-2;3.995302092E0,,,,,
1.255650667E0;-2.603578019E0;2.962134838E0;-6.874303202E-1;4.003176457E0,,,,,
1.265668667E0;-2.216207584E0;2.786343269E0;-9.403936601E-1;3.682339624E0,,,,,
1.275686667E0;-2.039017653E0;2.713577302E0;-3.813438566E-1;3.415628478E0,,,,,
1.285704667E0;-1.782267584E0;3.160662427E0;1.952513945E-1;3.633784229E0,,,,,
1.295723667E0;-1.335475988E0;3.514169298E0;5.065571558E-1;3.793347087E0,,,,,
1.305741667E0;-1.021630781E0;3.683225166E0;6.221578518E-1;3.872590538E0,,,,,
1.315759667E0;-8.156725502E-1;4.253985043E0;1.000617642E0;4.445553522E0,,,,,
1.325777667E0;-8.428971863E-1;4.704083823E0;1.368633063E0;4.971120270E0,,,,,
1.335795667E0;-1.041710120E0;4.736587618E0;1.512055177E0;5.080032784E0,,,,,
1.345813667E0;-8.604610527E-1;4.239992656E0;1.254309911E0;4.504578148E0,,,,,
1.355832667E0;1.217624187E-1;2.623124384E0;7.345285459E-1;2.726745277E0,,,,,
1.365850667E0;2.061647547E0;-1.084392455E-1;1.046766353E0;2.314707212E0,,,,,
1.375868667E0;4.659981784E0;-3.352275977E0;1.454558043E0;5.921902021E0,,,,,
1.385886667E0;7.416997173E0;-5.109150272E0;1.680762259E0;9.161889835E0,,,,,
1.395904667E0;9.651943329E0;-5.395370893E0;6.953463538E-1;1.107941982E1,,,,,
1.405922667E0;1.082353765E1;-5.462273566E0;-1.265449588E0;1.218961699E1,,,,,
1.415941667E0;9.886652319E0;-4.606612785E0;-2.621203866E0;1.121773084E1,,,,,
1.425959667E0;5.862104418E0;-2.681138411E0;-2.169048181E0;6.801289686E0,,,,,
1.435977667E0;1.188857056E0;-1.364936307E0;-1.258225206E0;2.204441628E0,,,,,
1.445995667E0;-2.217205119E0;-1.094577720E0;-4.542102501E-2;2.473087542E0,,,,,
1.456013667E0;-3.917621039E0;-1.255618225E0;1.361843569E0;4.333468546E0,,,,,
1.466031667E0;-4.858879502E0;-1.290204506E0;1.912308490E0;5.378685847E0,,,,,
1.476050667E0;-5.231514954E0;-1.462694736E0;1.801433587E0;5.723057537E0,,,,,
1.486068667E0;-4.790999175E0;-1.358419878E0;2.074117320E0;5.394528739E0,,,,,
1.496086667E0;-4.049725428E0;-9.561051285E-1;2.483884638E0;4.846039202E0,,,,,
1.506104667E0;-3.721162779E0;-5.512339765E-1;3.331362240E0;5.024826932E0,,,,,
1.516122667E0;-3.096154482E0;-3.389636761E-1;4.356506613E0;5.355391566E0,,,,,
1.526140667E0;-2.374166606E0;-4.633111489E-1;4.555121326E0;5.157562854E0,,,,,
1.536159667E0;-1.868452619E0;-3.804993725E-1;4.937294172E0;5.292709014E0,,,,,
1.546177667E0;-1.357963210E0;-7.726329499E-1;5.839539428E0;6.044935606E0,,,,,
1.556195667E0;-1.500241755E0;-1.646464246E0;5.035318065E0;5.505996535E0,,,,,
1.566213667E0;-1.506501784E0;-1.902997969E0;4.295451157E0;4.933745994E0,,,,,
1.576231667E0;-1.182570714E0;-2.249046131E0;4.560094968E0;5.220263223E0,,,,,
1.586249667E0;-9.828210568E-1;-3.537419289E0;3.098238430E0;4.803993529E0,,,,,
1.596268667E0;-1.021337836E0;-4.467579153E0;-4.022904249E0;6.098045019E0,,,,,
1.606286667E0;-6.280365694E-1;-2.934153280E0;-1.034450919E1;1.077091248E1,,,,,
1.616304667E0;-1.672573233E0;-2.669794228E0;-7.190921012E0;7.850773684E0,,,,,
1.626322667E0;-3.150413720E0;-2.274349957E0;-3.507294434E0;5.234394768E0,,,,,
1.636340667E0;-3.375689397E0;-1.796406736E0;-7.770726677E-1;3.902076114E0,,,,,
1.646359667E0;-3.510541393E0;-1.175887932E0;1.910846686E-1;3.707172326E0,,,,,
1.656377667E0;-2.580658688E0;-7.563665807E-2;-6.977446624E-1;2.674391105E0,,,,,
1.666395667E0;-4.737963760E-1;8.805140787E-1;-1.015100026E0;1.424856523E0,,,,,
1.676413667E0;1.821950297E0;8.502822196E-1;3.331100651E-1;2.038000259E0,,,,,
1.686431667E0;3.231566057E0;5.168359762E-1;3.514078374E0;4.801966829E0,,,,,
1.696449667E0;3.275306738E0;-4.872712845E-1;5.823281829E0;6.698931168E0,,,,,
1.706467667E0;2.075606605E0;-1.385289588E0;4.828590925E0;5.435297631E0,,,,,
1.716486667E0;3.509691793E-1;-1.827970591E0;2.187948575E0;2.872590262E0,,,,,
1.726504667E0;-9.618669748E-1;-2.087756535E0;7.835046780E-1;2.428537627E0,,,,,
1.736522667E0;-1.189996678E0;-1.950807143E0;8.223648347E-2;2.286592102E0,,,,,
1.746540667E0;-7.841624898E-1;-1.968193839E0;-8.954204587E-1;2.300103388E0,,,,,
1.756558667E0;-2.475845593E-1;-1.555620149E0;-2.646163291E0;3.079518197E0,,,,,
1.766577667E0;-2.084649324E-2;-1.162426472E-1;-4.519642761E0;4.521185421E0,,,,,
1.776595667E0;-9.944301188E-2;3.054102477E0;-6.166925032E0;6.882470138E0,,,,,
1.786613667E0;-1.352604822E0;5.031012175E0;-6.200753514E0;8.098763328E0,,,,,
1.796631667E0;-2.164094274E0;5.084579102E0;-3.208528612E0;6.389906457E0,,,,,
1.806649667E0;-2.085930449E0;3.088556026E0;2.301697969E-1;3.734067795E0,,,,,
1.816667667E0;-2.152627299E0;-5.171230745E-1;3.249998235E0;3.932392286E0,,,,,
1.826686667E0;-1.933457285E0;-2.401675417E0;4.684015009E0;5.607699928E0,,,,,
1.836704667E0;-8.419160235E-1;-1.418477799E0;4.965754910E0;5.232554221E0,,,,,
1.846722667E0;1.026572263E-1;2.346031559E-1;4.220813788E0;4.228574959E0,,,,,
1.856740667E0;-1.269065067E-1;3.307331353E-1;2.676648334E0;2.699988143E0,,,,,
1.866758667E0;3.532741517E-2;7.294524318E-1;2.602677548E0;2.703197976E0,,,,,
1.876776667E0;7.376712781E-1;1.737538138E0;2.637253304E0;3.243193285E0,,,,,
1.886795667E0;1.302618729E0;2.490085902E0;2.940150769E0;4.067164848E0,,,,,
1.896813667E0;1.724056213E0;2.810238501E0;3.372292750E0;4.716160371E0,,,,,
1.906831667E0;2.402049639E0;4.592688518E0;3.947976859E0;6.515301341E0,,,,,
1.916849667E0;5.955013751E0;1.149063011E1;3.972125859E0;1.353789323E1,,,,,
1.926867667E0;8.228874296E0;1.036513816E1;2.589071077E0;1.348531610E1,,,,,
1.936886667E0;7.836626698E0;4.198717160E0;1.907024946E0;9.092782189E0,,,,,
1.946904667E0;6.782829798E0;1.706156132E0;2.379292860E0;7.387745484E0,,,,,
1.956922667E0;5.456843256E0;8.953069496E-1;3.129775972E0;6.354070388E0,,,,,
1.966940667E0;3.637463687E0;-1.071651372E0;3.469889796E0;5.140011083E0,,,,,
1.976958667E0;1.644418013E0;-2.891434107E0;4.313474615E0;5.447069400E0,,,,,
1.986976667E0;-7.834918141E-1;-4.860098062E0;5.434072444E0;7.332363597E0,,,,,
1.996995667E0;-3.512532662E0;-6.646645222E0;2.930374224E0;8.068635046E0,,,,,
2.007013667E0;-5.007803991E0;-6.450560600E0;4.031490739E-1;8.176207069E0,,,,,
2.017031667E0;-5.067233337E0;-6.947383896E0;-3.789723136E0;9.397073913E0,,,,,
2.027049667E0;-5.041109147E0;-7.616998261E0;-4.193970391E0;1.005091198E1,,,,,
2.037067667E0;-5.554996372E0;-7.670754638E0;-2.804206513E0;9.877349624E0,,,,,
2.047085667E0;-5.309379986E0;-7.912632315E0;-2.760343040E0;9.920622949E0,,,,,
2.057104667E0;-3.332103375E0;-7.278255025E0;-3.910215540E0;8.908742598E0,,,,,
2.067122667E0;-1.730830797E0;-6.774089381E0;-4.129170377E0;8.119982154E0,,,,,
2.077139792E0;-9.704898638E-1;-5.878470190E0;-3.718340328E0;7.023127305E0,,,,,
2.087157792E0;-1.322995107E0;-4.712354125E0;-3.030579128E0;5.756822674E0,,,,,
2.097175792E0;-2.310850616E0;-3.685338643E0;-2.097547113E0;4.829229273E0,,,,,
2.107193792E0;-2.946430678E0;-2.840998363E0;-1.164571230E0;4.255461384E0,,,,,
2.117212792E0;-3.375873000E0;-2.099443949E0;-4.472417577E-1;4.000526040E0,,,,,
2.127230792E0;-3.925698675E0;-1.125573226E0;-5.340371691E-2;4.084222953E0,,,,,
2.137248792E0;-3.561299903E0;5.071331066E-1;-1.192771109E0;3.789821091E0,,,,,
2.147266792E0;-2.337247286E0;8.754346025E-1;-4.784145069E-1;2.541257772E0,,,,,
2.157284792E0;-2.266805587E0;-1.823635465E-1;1.755931870E0;2.873144752E0,,,,,
2.167303792E0;-1.996392036E0;-1.372166097E-1;2.621305608E0;3.297825442E0,,,,,
2.177321792E0;-1.856878640E0;-1.691166794E-1;2.734525244E0;3.309717064E0,,,,,
2.187339792E0;-1.790299319E0;-7.928473592E-2;2.462968855E0;3.045927330E0,,,,,
2.197357792E0;-1.847154136E0;-8.983779073E-2;1.780458601E0;2.567115514E0,,,,,
2.207375792E0;-2.247372658E0;-2.306638867E-1;1.211625090E0;2.563576614E0,,,,,
2.217393792E0;-2.512141600E0;-1.237381929E-1;5.663567034E-1;2.578163391E0,,,,,
2.227412792E0;-2.462657198E0;3.249274349E-1;-1.120069242E-1;2.486524455E0,,,,,
2.237430792E0;-2.278762266E0;1.026268793E0;-1.861999047E-1;2.506123601E0,,,,,
2.247448792E0;-2.181005299E0;1.409988812E0;1.295811693E-1;2.600316104E0,,,,,
2.257466792E0;-2.011728113E0;1.735789236E0;4.891638820E-1;2.701720855E0,,,,,
2.267484792E0;-1.667957149E0;2.205050511E0;8.469772272E-1;2.891660290E0,,,,,
2.277503792E0;-1.158395694E0;2.378159670E0;1.299492223E0;2.947236678E0,,,,,
2.287521792E0;-5.216014570E-1;2.247256883E0;1.501843307E0;2.752774037E0,,,,,
2.297539792E0;-6.774993360E-2;1.613146811E0;3.564111829E-1;1.653439330E0,,,,,
2.307557792E0;2.318143263E-1;1.160703882E0;-1.116952529E0;1.627437967E0,,,,,
2.317575792E0;4.575782463E-1;1.242100632E0;-2.419613944E0;2.758028910E0,,,,,
2.327593792E0;-1.851248941E-1;5.124277604E-1;-3.976811818E0;4.013961344E0,,,,,
2.337612792E0;-1.331343761E0;-5.449710238E-1;-3.926173761E0;4.181424402E0,,,,,
2.347630792E0;-1.913732872E0;-8.893498063E-1;-3.107673497E0;3.756454598E0,,,,,
2.357648792E0;-2.065378948E0;-9.564015824E-1;-1.677607101E0;2.827518306E0,,,,,
2.367666792E0;-1.693851543E0;-8.909800100E-1;-2.441680312E-1;1.929403135E0,,,,,
2.377684792E0;-9.456687257E-1;-9.817995483E-1;1.019936916E0;1.702495523E0,,,,,
2.387703792E0;-3.867971161E-1;-1.106156377E0;1.960740978E0;2.284228342E0,,,,,
2.397721792E0;-1.086324960E-2;-4.880776155E-1;2.468593876E0;2.516404875E0,,,,,
2.407739792E0;-2.446966195E-1;5.111168146E-1;2.753273757E0;2.810984385E0,,,,,
2.417757792E0;-5.396465492E-1;7.502626723E-1;2.716805842E0;2.869694489E0,,,,,
2.427775792E0;-6.600354570E-1;3.931170791E-1;2.291194031E0;2.416559110E0,,,,,
2.437793792E0;-7.692146677E-1;-2.301417303E-1;1.878502082E0;2.042896594E0,,,,,
2.447812792E0;-9.314687625E-1;-7.513397294E-1;1.524925922E0;1.938438679E0,,,,,
2.457830792E0;-1.057847850E0;-1.026957010E0;8.972400391E-1;1.725897582E0,,,,,
2.467848792E0;-1.160543961E0;-1.006447316E0;-8.168224052E-2;1.538333668E0,,,,,
2.477866792E0;-1.239287537E0;-8.622520548E-1;-1.178416268E0;1.915196362E0,,,,,
2.487884792E0;-1.364423507E0;-7.774797070E-1;-1.954606956E0;2.507312217E0,,,,,
2.497903792E0;-1.529368782E0;-7.323286772E-1;-2.197091135E0;2.775334866E0,,,,,
2.507921792E0;-1.675345983E0;-6.795505393E-1;-1.981568760E0;2.682384731E0,,,,,
2.517939792E0;-1.751204543E0;-7.084468943E-1;-1.375915332E0;2.337040298E0,,,,,
2.527957792E0;-1.829920052E0;-7.258587331E-1;-5.219995793E-1;2.036654575E0,,,,,
2.537975792E0;-1.942460243E0;-7.911575139E-1;1.547174723E-1;2.103097597E0,,,,,
2.547993792E0;-2.080579078E0;-8.304011017E-1;6.455349469E-1;2.331328088E0,,,,,
2.558012792E0;-2.215639234E0;-8.354402322E-1;8.518855262E-1;2.516490919E0,,,,,
2.568030792E0;-2.287057126E0;-7.964147455E-1;8.057648818E-1;2.552285993E0,,,,,
2.578048792E0;-2.264821919E0;-8.104053783E-1;6.129449058E-1;2.482312764E0,,,,,
2.588066792E0;-2.195450260E0;-8.508382899E-1;3.738477261E-1;2.384049027E0,,,,,
2.598084792E0;-2.124924946E0;-8.445969719E-1;1.599214943E-1;2.292209623E0,,,,,
2.608103792E0;-2.037903174E0;-7.940589023E-1;1.027648151E-4;2.187139433E0,,,,,
2.618121792E0;-1.957931975E0;-7.310744494E-1;-8.887548521E-2;2.091857147E0,,,,,
2.628139792E0;-1.877742675E0;-6.691015649E-1;-8.836093023E-2;1.995350123E0,,,,,
2.638157792E0;-1.852445866E0;-5.284111243E-1;7.848381355E-2;1.927935090E0,,,,,
2.648175792E0;-1.767015706E0;-5.415083027E-1;2.206761114E-1;1.861255945E0,,,,,
2.658193792E0;-1.621030027E0;-5.739211732E-1;2.935315414E-1;1.744501255E0,,,,,
2.668212792E0;-1.649560347E0;-4.735320818E-1;1.240266068E-1;1.720658179E0,,,,,
2.678230792E0;-1.705931599E0;-3.882808471E-1;-1.789686531E-2;1.749652804E0,,,,,
2.688248792E0;-1.556131781E0;-2.970800704E-1;2.694958305E-1;1.606994303E0,,,,,
2.698266792E0;-1.262179386E0;-2.046706742E-1;3.400351784E-1;1.323106500E0,,,,,
2.708284792E0;-1.429551841E0;-4.313479292E-1;1.221050656E-1;1.498195297E0,,,,,
2.718303792E0;-1.806023067E0;-6.547606838E-1;-3.632220197E-1;1.955085959E0,,,,,
2.728321792E0;-2.127909365E0;-8.567708749E-1;-1.150303732E0;2.566174833E0,,,,,
2.738339792E0;-2.288012561E0;-9.323356122E-1;-7.716345379E-1;2.588372275E0,,,,,
2.748357792E0;-2.280520524E0;-8.029741520E-1;-1.007497184E-1;2.419853684E0,,,,,
2.758375792E0;-2.237518346E0;-6.453338027E-1;1.704331800E-1;2.334950007E0,,,,,
2.768394792E0;-2.316655147E0;-6.017053878E-1;1.891754065E-1;2.400984752E0,,,,,
2.778412792E0;-2.577693565E0;-7.272480315E-1;-2.890723085E-1;2.693873905E0,,,,,
2.788430792E0;-2.814425107E0;-1.031332482E0;-8.601628447E-1;3.118415542E0,,,,,
2.798448792E0;-2.737251216E0;-1.023466807E0;-6.869273865E-1;3.001982305E0,,,,,
2.808466792E0;-2.618267394E0;-9.008033323E-1;-1.779190779E-1;2.774603754E0,,,,,
2.818484792E0;-2.635591525E0;-8.596032661E-1;7.475548267E-2;2.773237971E0,,,,,
2.828503792E0;-2.686881546E0;-9.203143215E-1;-1.202918440E-2;2.840150629E0,,,,,
2.838521792E0;-2.705525978E0;-9.567869139E-1;-3.373612466E-1;2.889485184E0,,,,,
2.848539792E0;-2.656225764E0;-8.904508370E-1;-6.533209531E-1;2.876676254E0,,,,,
2.858557792E0;-2.571116617E0;-7.748554766E-1;-7.464565735E-1;2.787156092E0,,,,,
2.868575792E0;-2.472415032E0;-6.543022621E-1;-7.029437873E-1;2.652372053E0,,,,,
2.878594792E0;-2.328071836E0;-6.343036151E-1;-8.803211206E-1;2.568506341E0,,,,,
2.888612792E0;-2.237228324E0;-7.058080459E-1;-1.342450109E0;2.702874001E0,,,,,
2.898630792E0;-2.161809182E0;-1.057345574E0;-2.053300062E0;3.163453769E0,,,,,
2.908648792E0;-1.630325931E0;-2.091829705E0;-3.211384684E0;4.164937664E0,,,,,
2.918666792E0;-4.034233814E-1;-3.761102770E0;-4.141763233E0;5.609175265E0,,,,,
2.928685792E0;1.105358816E0;-5.467526704E0;-3.281871407E0;6.471966185E0,,,,,
2.938703792E0;2.370157755E0;-6.807580478E0;-2.398801218E-1;7.212374243E0,,,,,
2.948721792E0;3.040253931E0;-7.503872180E0;2.507156264E0;8.475675442E0,,,,,
2.958739792E0;2.776594791E0;-7.079059099E0;4.145496388E0;8.660698394E0,,,,,
2.968757792E0;1.485692128E0;-5.259885060E0;5.042133579E0;7.436180671E0,,,,,
2.978776792E0;-4.388183320E-1;-2.407156597E0;4.978034062E0;5.546871869E0,,,,,
2.988794792E0;-2.117374436E0;9.741285861E-2;4.110363393E0;4.624700097E0,,,,,
2.998812792E0;-3.081142926E0;1.682638046E0;3.658906597E0;5.070730717E0,,,,,
3.008830792E0;-3.397300707E0;2.813755016E0;4.122375328E0;6.037619376E0,,,,,
3.018848792E0;-3.069646130E0;3.431059606E0;5.301288024E0;7.021292766E0,,,,,
3.028866792E0;-2.223371592E0;3.310369567E0;6.816233772E0;7.897022904E0,,,,,
3.038885792E0;-1.320117692E0;2.398976342E0;8.110412630E0;8.560174721E0,,,,,
3.048903792E0;-3.447927654E-1;1.292458608E0;8.632941456E0;8.735960708E0,,,,,
3.058921792E0;7.968626422E-1;4.568067062E-1;8.174582899E0;8.226023827E0,,,,,
3.068939792E0;2.004840678E0;-2.429792923E-1;6.940119900E0;7.227979614E0,,,,,
3.078957958E0;3.248232375E0;-4.777637118E-1;5.072272468E0;6.042120465E0,,,,,
3.088976958E0;4.297418745E0;-2.997347063E-1;3.518977464E0;5.562450104E0,,,,,
3.098994958E0;5.098108390E0;3.056614441E-1;2.688567299E0;5.771700979E0,,,,,
3.109012958E0;5.421842993E0;1.216809670E0;2.820182276E0;6.231407167E0,,,,,
3.119030958E0;5.459100866E0;2.264914305E0;3.395570515E0;6.816268642E0,,,,,
3.129048958E0;5.252386006E0;3.176753672E0;3.718754311E0;7.176939199E0,,,,,
3.139067958E0;4.871618246E0;3.785433034E0;3.136838239E0;6.921121421E0,,,,,
3.149085958E0;4.281752300E0;3.994756923E0;2.034820522E0;6.199353207E0,,,,,
3.159103958E0;3.401910651E0;3.696386957E0;1.215504060E0;5.168531971E0,,,,,
3.169121958E0;2.516746282E0;3.155852215E0;3.566930187E-1;4.052239500E0,,,,,
3.179139958E0;1.730584629E0;2.583050199E0;-1.703294650E-1;3.113853500E0,,,,,
3.189157958E0;1.251404722E0;2.135146464E0;-2.427646995E-1;2.486724532E0,,,,,
3.199176958E0;1.129830583E0;1.891653201E0;-1.293193603E-1;2.207168430E0,,,,,
3.209194958E0;1.255480231E0;1.616459259E0;-4.118310928E-2;2.047160764E0,,,,,
3.219212958E0;1.380813544E0;1.257655395E0;9.992891550E-3;1.867737400E0,,,,,
3.229230958E0;1.273541111E0;1.003406764E0;-7.600210905E-3;1.621354329E0,,,,,
3.239248958E0;9.162814969E-1;8.677881986E-1;-4.171162449E-2;1.262682858E0,,,,,
3.249267958E0;4.376740319E-1;8.929271328E-1;-2.172357559E-2;9.946604126E-1,,,,,
3.259285958E0;-3.525871038E-3;9.858464062E-1;-2.802921295E-2;9.862510863E-1,,,,,
3.269303958E0;-4.112498796E-1;1.066223987E0;-7.998987358E-2;1.145582137E0,,,,,
3.279321958E0;-8.094347405E-1;1.218748607E0;-1.045142289E-1;1.466784234E0,,,,,
3.289339958E0;-1.085167211E0;1.485037240E0;-6.124245767E-2;1.840291857E0,,,,,
3.299358958E0;-1.297091941E0;1.836821521E0;8.240839161E-2;2.250144872E0,,,,,
3.309376958E0;-1.434757032E0;2.062615262E0;1.037530676E-1;2.514691663E0,,,,,
3.319394958E0;-1.528087950E0;2.186196164E0;-1.600898210E-1;2.672103142E0,,,,,
3.329412958E0;-1.595557217E0;2.438409380E0;-8.399186146E-1;3.032673147E0,,,,,
3.339430958E0;-1.604873001E0;2.798586754E0;-1.578438324E0;3.591541829E0,,,,,
3.349449958E0;-1.544957752E0;3.220707777E0;-1.996120141E0;4.091985906E0,,,,,
3.359467958E0;-1.566255650E0;3.582194928E0;-2.532602177E0;4.658256224E0,,,,,
3.369485958E0;-1.560850484E0;3.952735323E0;-3.577045870E0;5.554784237E0,,,,,
3.379503958E0;-1.745545900E0;3.961526027E0;-3.975489178E0;5.877510795E0,,,,,
3.389521958E0;-2.302739943E0;3.088276529E0;-3.286489538E0;5.063701872E0,,,,,
3.399540958E0;-2.956893101E0;1.588100848E0;-1.738717668E0;3.780002678E0,,,,,
3.409558958E0;-3.555241018E0;3.308717144E-1;7.484716702E-1;3.648208413E0,,,,,
3.419576958E0;-3.707760960E0;-3.212811112E-1;3.026129397E0;4.796683440E0,,,,,
3.429594958E0;-3.004198830E0;-7.000707579E-1;3.894277200E0;4.967967853E0,,,,,
3.439612958E0;-1.267813763E0;-1.001732122E0;3.334601598E0;3.705453656E0,,,,,
3.449631958E0;1.410555992E0;-1.635238761E0;2.405193686E0;3.232434173E0,,,,,
3.459649958E0;4.887560095E0;-3.100467973E0;1.120541770E0;5.895486340E0,,,,,
3.469667958E0;8.724212984E0;-4.929620871E0;1.138734285E-1;1.002127843E1,,,,,
3.479685958E0;1.191686407E1;-6.166718041E0;-6.199066007E-1;1.343221295E1,,,,,
3.489703958E0;1.412528023E1;-6.655099711E0;-1.456801035E0;1.568235196E1,,,,,
3.499722958E0;1.520426226E1;-6.935607603E0;-1.806425940E0;1.680878992E1,,,,,
3.509740958E0;1.524550852E1;-7.259407695E0;-1.263379819E0;1.693282784E1,,,,,
3.519758958E0;1.463658650E1;-7.316164863E0;-3.777955834E-1;1.636761015E1,,,,,
3.529776958E0;1.393545389E1;-7.388575612E0;-6.211142700E-2;1.577313483E1,,,,,
3.539794958E0;1.286520175E1;-7.383829427E0;-7.276836491E-1;1.485139309E1,,,,,
3.549813958E0;1.074507386E1;-7.181858997E0;-1.856635981E0;1.305690653E1,,,,,
3.559831958E0;8.191408262E0;-6.864100834E0;-2.472324400E0;1.096938638E1,,,,,
3.569849958E0;5.917965208E0;-6.861267273E0;-2.939218723E0;9.525665724E0,,,,,
3.579867958E0;3.908052655E0;-7.122079988E0;-3.026926957E0;8.669439758E0,,,,,
3.589885958E0;1.954173385E0;-6.907537460E0;-2.288425959E0;7.534571039E0,,,,,
3.599903958E0;-9.572652161E-2;-5.876182759E0;-9.990167478E-1;5.961268476E0,,,,,
3.609922958E0;-2.140941054E0;-4.297926868E0;5.719103158E-1;4.835585318E0,,,,,
3.619940958E0;-3.658503431E0;-2.613092024E0;2.292763424E0;5.046747606E0,,,,,
3.629958958E0;-4.427232195E0;-9.723177034E-1;3.215119593E0;5.557227782E0,,,,,
3.639976958E0;-5.075790737E0;9.025235832E-1;3.348236135E0;6.147266518E0,,,,,
3.649995958E0;-6.311636018E0;3.016734676E0;3.047795670E0;7.630628793E0,,,,,
3.660013958E0;-7.450841442E0;4.860859954E0;2.781084284E0;9.320806160E0,,,,,
3.670031958E0;-8.183124511E0;6.269661781E0;2.432072314E0;1.059184410E1,,,,,
3.680049958E0;-8.471948313E0;7.143981904E0;1.967843006E0;1.125534503E1,,,,,
3.690067958E0;-8.495212630E0;7.793190072E0;1.428816261E0;1.161653843E1,,,,,
3.700086958E0;-8.259875064E0;8.308274222E0;9.446666591E-1;1.175352508E1,,,,,
3.710104958E0;-7.828012580E0;8.590293619E0;6.706955159E-1;1.164133832E1,,,,,
3.720122958E0;-7.490945740E0;8.580876678E0;7.637001586E-1;1.141617057E1,,,,,
3.730140958E0;-7.417873671E0;8.469690118E0;9.559905962E-1;1.129931053E1,,,,,
3.740158958E0;-7.454387194E0;8.410637333E0;1.170440665E0;1.129940884E1,,,,,
3.750177958E0;-7.568146529E0;8.407942352E0;1.340906882E0;1.139159198E1,,,,,
3.760195958E0;-7.676436962E0;8.397451277E0;1.451087136E0;1.146954778E1,,,,,
3.770213958E0;-7.709166752E0;8.374027331E0;1.518686796E0;1.148311784E1,,,,,
3.780231958E0;-7.783284888E0;8.362532290E0;1.573530171E0;1.153201921E1,,,,,
3.790249958E0;-7.891884055E0;8.293973102E0;1.550714189E0;1.155320467E1,,,,,
3.800268958E0;-7.931041104E0;8.148694351E0;1.505889580E0;1.147041133E1,,,,,
3.810286958E0;-7.863654283E0;8.003123240E0;1.372015239E0;1.130351565E1,,,,,
3.820304958E0;-7.734807377E0;7.838448690E0;1.169099387E0;1.107408310E1,,,,,
3.830322958E0;-7.642914290E0;7.736069207E0;1.035622730E0;1.092398371E1,,,,,
3.840340958E0;-7.602807654E0;7.733759556E0;9.477833712E-1;1.088632235E1,,,,,
3.850359958E0;-7.554510237E0;7.747895785E0;9.257498932E-1;1.086082533E1,,,,,
3.860377958E0;-7.497080639E0;7.680825883E0;1.061819352E0;1.078558133E1,,,,,
3.870395958E0;-7.608520383E0;7.441712769E0;1.162557449E0;1.070608291E1,,,,,
3.880413958E0;-7.050418267E0;6.434280782E0;7.928707480E-2;9.545399592E0,,,,,
3.890431958E0;-4.846493930E0;4.816375507E0;-2.178644632E0;7.171643386E0,,,,,
3.900450958E0;-2.672152410E0;3.347449100E0;-6.414454043E0;7.713043151E0,,,,,
3.910468958E0;3.041546166E-1;1.592689158E0;-1.891482813E1;1.898420112E1,,,,,
3.920486958E0;8.182757306E-1;-1.002271235E-2;-1.370650616E1;1.373091354E1,,,,,
3.930504958E0;9.769948912E-1;-2.443713974E0;5.459464563E0;6.060693881E0,,,,,
3.940522958E0;9.606947250E0;-8.269316563E0;1.144246426E1;1.707644636E1,,,,,
3.950541958E0;2.366422671E1;-1.758821184E1;1.090930344E1;3.143809350E1,,,,,
3.960559958E0;3.306991747E1;-2.642997842E1;4.793026113E0;4.260441644E1,,,,,
3.970577958E0;3.389808669E1;-3.090625589E1;-5.509312077E0;4.620205032E1,,,,,
3.980595958E0;2.885828732E1;-2.759943325E1;-1.042332381E1;4.126954254E1,,,,,
3.990613958E0;2.486734980E1;-2.082262023E1;-1.127030001E1;3.433636937E1,,,,,
4.000632958E0;1.660805244E1;-1.217045781E1;-1.935274014E0;2.068073342E1,,,,,
4.010650958E0;1.139253722E1;-6.197849786E0;2.929027026E0;1.329595599E1,,,,,
4.020668958E0;9.026024036E0;-4.309169310E0;2.034984244E0;1.020682178E1,,,,,
4.030686958E0;7.889888985E0;-4.271871675E0;5.609947336E-1;8.989657997E0,,,,,
4.040704958E0;6.938686162E0;-4.468194864E0;-3.925820589E-2;8.252979596E0,,,,,
4.050723958E0;5.579105612E0;-4.551092595E0;4.000372589E-1;7.211025797E0,,,,,
4.060741958E0;3.843965417E0;-4.473743287E0;3.665982385E-1;5.909724477E0,,,,,
4.070759958E0;1.731024340E0;-3.841154661E0;-8.156094003E-1;4.291402228E0,,,,,
4.080781417E0;-5.036218536E-1;-2.934943238E0;-1.778966246E0;3.468753045E0,,,,,
4.090799417E0;-2.260195602E0;-2.234346231E0;-1.035488098E0;3.342607192E0,,,,,
4.100818417E0;-3.593764229E0;-1.055029492E0;5.043129945E-1;3.779227455E0,,,,,
4.110836417E0;-4.802866684E0;7.278339225E-1;1.196260800E0;5.002830250E0,,,,,
4.120854417E0;-5.903096323E0;2.521731618E0;1.061702335E0;6.506372907E0,,,,,
4.130872417E0;-6.847990585E0;4.290188078E0;9.380150858E-1;8.135143582E0,,,,,
4.140890417E0;-7.633446479E0;5.999146196E0;1.051232311E0;9.765467198E0,,,,,
4.150909417E0;-8.229895805E0;7.370788967E0;1.067774011E0;1.109954307E1,,,,,
4.160927417E0;-8.337710860E0;8.179971108E0;9.556339160E-1;1.171932532E1,,,,,
4.170945417E0;-8.196219935E0;8.577201118E0;8.296415484E-1;1.189263240E1,,,,,
4.180963417E0;-8.106787941E0;8.701969006E0;7.541879082E-1;1.191692388E1,,,,,
4.190981417E0;-7.980443645E0;8.700972641E0;8.565258765E-1;1.183756910E1,,,,,
4.201000417E0;-7.769252155E0;8.616855181E0;8.672145136E-1;1.163458350E1,,,,,
4.211018417E0;-7.671076820E0;8.595941445E0;8.337731910E-1;1.155122533E1,,,,,
4.221036417E0;-7.665945888E0;8.703726679E0;1.006447316E0;1.164192942E1,,,,,
4.231054417E0;-7.798703996E0;8.736523712E0;1.210913923E0;1.177339981E1,,,,,
4.241073417E0;-8.056235254E0;8.846593453E0;1.479053199E0;1.205623244E1,,,,,
4.251091417E0;-8.277617855E0;9.100775426E0;1.661009195E0;1.241378356E1,,,,,
4.261109417E0;-8.452633790E0;9.266613572E0;1.701366677E0;1.265747975E1,,,,,
4.271127417E0;-8.515680808E0;9.199285222E0;1.624523739E0;1.264051999E1,,,,,
4.281145417E0;-8.385587862E0;8.989042736E0;1.403474429E0;1.237298321E1,,,,,
4.291164417E0;-8.137660071E0;8.771208810E0;1.169443204E0;1.202178077E1,,,,,
4.301182417E0;-7.860932404E0;8.597362318E0;1.037949775E0;1.169556484E1,,,,,
4.311200417E0;-7.548356627E0;8.511964318E0;1.021115715E0;1.142251731E1,,,,,
4.321218417E0;-7.167920989E0;8.401504567E0;1.062780635E0;1.109476782E1,,,,,
4.331236417E0;-6.768556745E0;8.146471240E0;1.096743602E0;1.064806088E1,,,,,
4.341255417E0;-6.441227274E0;7.770851369E0;1.102110103E0;1.015333376E1,,,,,
4.351273417E0;-5.463057092E0;7.030478677E0;6.597577143E-1;8.927928285E0,,,,,
4.361291417E0;-3.727297093E0;5.582171892E0;-1.209826341E0;6.820342105E0,,,,,
4.371309417E0;-2.525669133E0;4.228656074E0;-5.599342825E0;7.457424276E0,,,,,
4.381327417E0;-1.695335859E-1;2.424128725E0;-1.541596655E1;1.560631816E1,,,,,
4.391346417E0;2.458660626E0;-1.801164615E-1;-1.188764904E1;1.214057880E1,,,,,
4.401364417E0;2.128228038E0;-2.728922442E0;2.602780459E0;4.330223827E0,,,,,
4.411382417E0;8.233119375E0;-1.072232235E1;1.102789316E1;1.744611357E1,,,,,
4.421400417E0;1.826848393E1;-2.082198406E1;1.455451498E1;3.129099601E1,,,,,
4.431419417E0;2.706094211E1;-2.881830874E1;8.238032205E0;4.038136551E1,,,,,
4.441437417E0;3.150985461E1;-3.350021407E1;-8.231986184E0;4.672152477E1,,,,,
4.451455417E0;2.906985595E1;-2.651478410E1;-1.628536683E1;4.258290119E1,,,,,
4.461473417E0;2.276807074E1;-1.331835512E1;-7.657873807E0;2.746646427E1,,,,,
4.471491417E0;1.594272584E1;-6.593065431E0;1.481245905E0;1.731568966E1,,,,,
4.481510417E0;1.201059259E1;-3.870231695E0;2.290829165E0;1.282501174E1,,,,,
4.491528417E0;9.390316681E0;-3.464025038E0;1.919156749E0;1.019120599E1,,,,,
4.501546417E0;7.383698450E0;-4.875076289E0;3.051949532E0;9.359474749E0,,,,,
4.511564417E0;5.410021092E0;-6.178429429E0;3.556282407E0;8.949215775E0,,,,,
4.521582417E0;3.651937593E0;-6.919202655E0;3.272357987E0;8.480586086E0,,,,,
4.531601417E0;2.533249463E0;-7.083453866E0;2.169995284E0;7.829530704E0,,,,,
4.541619417E0;1.367463766E0;-6.492590970E0;3.291234334E-1;6.643193275E0,,,,,
4.551637417E0;-1.987585545E-1;-5.335581359E0;-1.036548856E0;5.438967451E0,,,,,
4.561655417E0;-1.686932241E0;-4.160061218E0;-1.638157107E0;4.778640855E0,,,,,
4.571673417E0;-2.749922717E0;-2.942874402E0;-1.903119006E0;4.454710613E0,,,,,
4.581692417E0;-3.371830235E0;-1.347185622E0;-1.475397520E0;3.919304285E0,,,,,
4.591710417E0;-3.744079771E0;6.380224442E-1;-4.967408137E-1;3.830399119E0,,,,,
4.601728417E0;-4.153184307E0;2.782822661E0;4.279261752E-1;5.017585342E0,,,,,
4.611746417E0;-4.672419981E0;4.749639480E0;9.179882991E-1;6.725569581E0,,,,,
4.621765417E0;-5.282801467E0;6.543843570E0;1.053591077E0;8.475844157E0,,,,,
4.631783417E0;-5.940344256E0;8.102350489E0;9.859387191E-1;1.009494173E1,,,,,
4.641801417E0;-6.469216141E0;9.373490734E0;8.847795495E-1;1.142348112E1,,,,,
4.651819417E0;-6.636234840E0;1.020843161E1;7.751782429E-1;1.220051598E1,,,,,
4.661837417E0;-6.588706917E0;1.056170635E1;6.292773485E-1;1.246421637E1,,,,,
4.671856417E0;-6.457448620E0;1.050398848E1;5.794590712E-1;1.234375103E1,,,,,
4.681874417E0;-6.336368571E0;1.028827534E1;5.369965545E-1;1.209489733E1,,,,,
4.691892417E0;-6.305927966E0;1.020666926E1;3.944894207E-1;1.200401795E1,,,,,
4.701910417E0;-6.289096171E0;1.032121037E1;4.721299195E-1;1.209557856E1,,,,,
4.711928417E0;-6.183407748E0;1.039661372E1;5.788322496E-1;1.211029129E1,,,,,
4.721947417E0;-6.130758249E0;1.040412974E1;7.133462763E-1;1.209714740E1,,,,,
4.731965417E0;-6.215151697E0;1.036753318E1;7.895682406E-1;1.211351612E1,,,,,
4.741983417E0;-6.383225818E0;1.024302140E1;7.499147630E-1;1.209245349E1,,,,,
4.752001417E0;-6.524880465E0;9.982476490E0;7.288636172E-1;1.194801842E1,,,,,
4.762019417E0;-6.487614990E0;9.450102707E0;6.254648908E-1;1.147975591E1,,,,,
4.772038417E0;-6.361326826E0;8.534625202E0;5.119939701E-1;1.065684964E1,,,,,
4.782056417E0;-6.211546304E0;7.834336343E0;5.014373338E-1;1.001057305E1,,,,,
4.792074417E0;-6.049242216E0;7.478247342E0;4.851225789E-1;9.630828553E0,,,,,
4.802092417E0;-5.941783256E0;7.222576084E0;4.115844134E-1;9.361612856E0,,,,,
4.812111417E0;-5.880757620E0;6.858431958E0;1.571415818E-1;9.035822740E0,,,,,
4.822129417E0;-5.666594576E0;6.218288144E0;-6.811467560E-1;8.440459847E0,,,,,
4.832147417E0;-5.094849737E0;5.006055674E0;-2.716597681E0;7.641857772E0,,,,,
4.842165417E0;-3.975985606E0;3.254363181E0;-5.356881012E0;7.422635343E0,,,,,
4.852183417E0;-2.420139754E0;1.277592646E0;-7.193671542E0;7.696637556E0,,,,,
4.862202417E0;-8.973587376E-1;-4.812609315E-2;-6.289763339E0;6.353636099E0,,,,,
4.872220417E0;1.944772232E-1;-7.285157079E-1;-6.629339218E-1;1.004010912E0,,,,,
4.882238417E0;2.597118600E0;-3.874973202E0;5.123920923E0;6.929286252E0,,,,,
4.892256417E0;7.524171959E0;-9.580946437E0;1.057303825E1;1.613061797E1,,,,,
4.902275417E0;1.523873744E1;-1.553547779E1;9.367745844E0;2.369229519E1,,,,,
4.912293417E0;2.427262716E1;-2.243039638E1;1.644107233E0;3.309057569E1,,,,,
4.922311417E0;3.162882674E1;-2.885174312E1;-7.474184697E0;4.345882187E1,,,,,
4.932329417E0;3.075119709E1;-2.812923074E1;-8.606788030E0;4.255545259E1,,,,,
4.942347417E0;2.028610077E1;-1.808428962E1;-8.294427431E-1;2.718925139E1,,,,,
4.952366417E0;1.171585550E1;-9.397939112E0;3.951150727E0;1.553042568E1,,,,,
4.962384417E0;7.904426333E0;-5.680050774E0;3.579118123E0;1.037077716E1,,,,,
4.972402417E0;6.099698424E0;-5.060256439E0;1.672114227E0;8.099906301E0,,,,,
4.982420417E0;5.103231136E0;-6.474778013E0;1.325462047E0;8.350004070E0,,,,,
4.992438417E0;4.308575233E0;-7.863736144E0;1.963357022E0;9.179157776E0,,,,,
5.002457417E0;3.624693076E0;-8.424835542E0;2.265132991E0;9.447067338E0,,,,,
5.012475417E0;2.966559134E0;-8.175454718E0;1.597447622E0;8.842531982E0,,,,,
5.022493417E0;2.103745746E0;-7.138360975E0;1.151305433E-1;7.442795081E0,,,,,
5.032511417E0;1.126101229E0;-5.659518276E0;-1.046527568E0;5.864594704E0,,,,,
5.042530417E0;1.415359479E-1;-3.986946212E0;-1.284877692E0;4.191262722E0,,,,,
5.052548417E0;-7.287601215E-1;-2.248788854E0;-8.474369645E-1;2.511233170E0,,,,,
5.062566417E0;-1.473246914E0;-3.796947956E-1;-6.579060473E-2;1.522810892E0,,,,,
5.072584417E0;-2.355013466E0;1.802279094E0;6.668128916E-1;3.039562106E0,,,,,
5.082598917E0;-3.282574242E0;3.826666430E0;8.210788858E-1;5.108115128E0,,,,,
5.092617917E0;-4.209616370E0;5.573330317E0;5.074986307E-1;7.002887666E0,,,,,
5.102635917E0;-5.111635923E0;7.170724729E0;1.672034705E-1;8.807727968E0,,,,,
5.112653917E0;-5.880561739E0;8.542581509E0;1.611376055E-1;1.037220664E1,,,,,
5.122671917E0;-6.322900094E0;9.608150607E0;4.384207578E-1;1.151033607E1,,,,,
5.132690917E0;-6.501969904E0;1.038657289E1;6.463418627E-1;1.227087066E1,,,,,
5.142708917E0;-6.338069526E0;1.083720844E1;8.213630605E-1;1.258136914E1,,,,,
5.152726917E0;-6.056347752E0;1.102929181E1;8.911472404E-1;1.261422885E1,,,,,
5.162744917E0;-5.822642729E0;1.091861221E1;7.315907586E-1;1.239574467E1,,,,,
5.172762917E0;-5.787588671E0;1.086194216E1;4.704950380E-1;1.231662842E1,,,,,
5.182781917E0;-5.770626483E0;1.082963513E1;2.572330499E-1;1.227384601E1,,,,,
5.192799917E0;-5.768052539E0;1.088373123E1;-6.341188431E-2;1.231787549E1,,,,,
5.202817917E0;-5.874967123E0;1.089326219E1;-2.657091737E-1;1.237937806E1,,,,,
5.212835917E0;-6.064818029E0;1.073610307E1;-2.228666063E-1;1.233270434E1,,,,,
5.222853917E0;-6.193181369E0;1.046370702E1;-9.823092062E-2;1.215953574E1,,,,,
5.232872917E0;-6.160867901E0;9.999773723E0;2.491381645E-2;1.174531347E1,,,,,
5.242890917E0;-6.114843882E0;9.338172966E0;1.358062978E-1;1.116294018E1,,,,,
5.252908917E0;-6.008684174E0;8.660823319E0;2.327331432E-1;1.054363840E1,,,,,
5.262926917E0;-5.862469284E0;8.166029592E0;2.805727228E-1;1.005640624E1,,,,,
5.272945917E0;-5.772845501E0;7.788324603E0;1.602767857E-1;9.695846222E0,,,,,
5.282963917E0;-5.711047449E0;7.461098043E0;-1.766758867E-1;9.397619983E0,,,,,
5.292981917E0;-5.652144352E0;7.108482873E0;-5.677367925E-1;9.099427982E0,,,,,
5.302999917E0;-5.431721864E0;6.673917221E0;-1.079706131E0;8.672400983E0,,,,,
5.313017917E0;-4.970406954E0;6.085542315E0;-1.829406667E0;8.067558448E0,,,,,
5.323036917E0;-4.248075846E0;5.221429092E0;-2.709736558E0;7.256179599E0,,,,,
5.333054917E0;-3.176548435E0;3.965444831E0;-3.878561053E0;6.392061366E0,,,,,
5.343072917E0;-1.748824434E0;2.491213830E0;-4.162918167E0;5.156977886E0,,,,,
5.353090917E0;8.400051534E-2;5.486629558E-1;-9.967047588E-1;1.140836317E0,,,,,
5.363109917E0;3.214175853E0;-3.696019751E0;3.711110830E0;6.145228394E0,,,,,
5.373127917E0;8.449528334E0;-1.045993439E1;8.573014512E0;1.594682835E1,,,,,
5.383145917E0;1.516183253E1;-1.803291131E1;6.448344505E0;2.442638333E1,,,,,
5.393163917E0;2.236324461E1;-2.595888697E1;-1.076898006E0;3.428028926E1,,,,,
5.403182917E0;2.700648816E1;-3.048364955E1;-7.425124218E0;4.139729172E1,,,,,
5.413200917E0;2.462646089E1;-2.581157923E1;-5.997069849E0;3.617547574E1,,,,,
5.423218917E0;1.649767338E1;-1.421921108E1;1.179948238E0;2.181172777E1,,,,,
5.433236917E0;1.163328697E1;-8.012451303E0;3.790370423E0;1.462530853E1,,,,,
5.443254917E0;9.358264584E0;-6.621042604E0;2.275746857E0;1.168735834E1,,,,,
5.453273917E0;8.135024731E0;-6.982875325E0;1.722606103E0;1.085847811E1,,,,,
5.463291917E0;7.404273047E0;-8.174412160E0;2.703118680E0;1.135566485E1,,,,,
5.473309917E0;6.745156188E0;-8.942654436E0;3.258819344E0;1.166568060E1,,,,,
5.483327917E0;6.133836808E0;-8.976156058E0;3.088798685E0;1.130203561E1,,,,,
5.493345917E0;5.434191728E0;-8.346896251E0;2.123616339E0;1.018385306E1,,,,,
5.503364917E0;4.438859968E0;-7.264090730E0;5.885222920E-1;8.533278997E0,,,,,
5.513382917E0;3.154825444E0;-5.994509938E0;-9.499924493E-1;6.840289368E0,,,,,
5.523400917E0;1.931925314E0;-4.865346522E0;-1.731849382E0;5.513912811E0,,,,,
5.533418917E0;9.582826316E-1;-3.630158468E0;-1.499062371E0;4.042714942E0,,,,,
5.543437917E0;3.339461803E-2;-2.014154123E0;-9.436949980E-1;2.224520686E0,,,,,
5.553455917E0;-9.351919770E-1;1.465429187E-2;-2.203827274E-1;9.609200428E-1,,,,,
5.563473917E0;-2.031543742E0;2.105744909E0;6.859684432E-1;3.005309353E0,,,,,
5.573491917E0;-3.256268204E0;3.924717219E0;1.127112797E0;5.222745554E0,,,,,
5.583509917E0;-4.337730035E0;5.353715329E0;1.219916296E0;6.997597120E0,,,,,
5.593528917E0;-5.096794521E0;6.603599190E0;1.174188658E0;8.423986921E0,,,,,
5.603546917E0;-5.595042783E0;7.678748367E0;1.022232460E0;9.555764722E0,,,,,
5.613564917E0;-6.144893308E0;8.865072994E0;4.947703385E-1;1.079787158E1,,,,,
5.623582917E0;-6.573895335E0;9.945669436E0;-3.264964622E-2;1.192197578E1,,,,,
5.633601917E0;-6.695835509E0;1.049660696E1;-3.545961706E-1;1.245546905E1,,,,,
5.643619917E0;-6.743423658E0;1.047338065E1;-4.915333200E-1;1.246623720E1,,,,,
5.653637917E0;-6.791700025E0;1.037117015E1;-2.925572491E-1;1.240056246E1,,,,,
5.663655917E0;-6.782938557E0;1.012801603E1;3.955875278E-2;1.218960742E1,,,,,
5.673674917E0;-6.758581980E0;9.842464911E0;3.220481928E-1;1.194387964E1,,,,,
5.683692917E0;-6.722208790E0;9.644753008E0;6.100890525E-1;1.177206695E1,,,,,
5.693710917E0;-6.740828079E0;9.522796462E0;9.584930583E-1;1.170645653E1,,,,,
5.703728917E0;-6.720356392E0;9.508351500E0;1.448044245E0;1.173323359E1,,,,,
5.713746917E0;-6.598350145E0;9.311899087E0;1.979018204E0;1.158301352E1,,,,,
5.723765917E0;-6.411565518E0;8.933465536E0;2.461902323E0;1.126836021E1,,,,,
5.733783917E0;-6.324574737E0;8.733544555E0;2.726988183E0;1.112256763E1,,,,,
5.743801917E0;-6.256500283E0;8.634556457E0;2.822580804E0;1.103024584E1,,,,,
5.753819917E0;-6.095653905E0;8.584142933E0;2.818708777E0;1.089906535E1,,,,,
5.763838917E0;-5.905564433E0;8.626705985E0;2.646387824E0;1.078420678E1,,,,,
5.773856917E0;-5.762486574E0;8.617540475E0;2.216010532E0;1.060089421E1,,,,,
5.783874917E0;-5.601469458E0;8.514258181E0;1.689503846E0;1.033070548E1,,,,,
5.793892917E0;-5.367352790E0;8.328549442E0;1.336618388E0;9.997987823E0,,,,,
5.803910917E0;-4.974980062E0;8.001353288E0;7.852623510E-1;9.454560699E0,,,,,
5.813929917E0;-3.023802205E0;6.822266344E0;-4.714025259E0;8.826592321E0,,,,,
5.823947917E0;8.456886470E-1;3.439225243E0;-1.234434699E1;1.284236591E1,,,,,
5.833965917E0;2.149944012E0;-1.203614259E-1;-1.585734246E1;1.600287649E1,,,,,
5.843983917E0;1.248305697E0;-6.016586101E-1;-9.926828538E0;1.002308261E1,,,,,
5.854002917E0;-4.647361153E-1;2.344698393E-1;3.906328311E0;3.940857348E0,,,,,
5.864020917E0;2.947260398E0;-5.163470905E0;9.091440346E0;1.086287546E1,,,,,
5.874038917E0;1.043151692E1;-1.369799963E1;1.318347857E1;2.168538324E1,,,,,
5.884056917E0;1.728526058E1;-2.075730449E1;1.292564325E1;2.994525299E1,,,,,
5.894075917E0;2.222985559E1;-2.761566746E1;5.070889016E0;3.581208572E1,,,,,
5.904093917E0;2.218218441E1;-2.982536533E1;-3.961561110E0;3.738041852E1,,,,,
5.914111917E0;1.670962208E1;-2.269725862E1;-8.606072330E0;2.946933152E1,,,,,
5.924129917E0;1.133887615E1;-1.435627332E1;-5.035684100E0;1.897447787E1,,,,,
5.934147917E0;9.309654341E0;-1.078485013E1;1.955891808E-2;1.424721162E1,,,,,
5.944166917E0;9.595707148E0;-8.673876643E0;8.572252035E-1;1.296335476E1,,,,,
5.954184917E0;1.057109815E1;-8.153104906E0;6.239680036E-1;1.336452662E1,,,,,
5.964202917E0;1.060435828E1;-8.759536014E0;1.251433958E0;1.381115392E1,,,,,
5.974220917E0;9.378382514E0;-8.456971840E0;2.004692159E0;1.278644681E1,,,,,
5.984239917E0;7.655617366E0;-7.219377072E0;1.650941459E0;1.065145484E1,,,,,
5.994257917E0;5.924248041E0;-5.841902872E0;3.232925534E-2;8.320191656E0,,,,,
6.004275917E0;4.104781641E0;-4.845562468E0;-1.706112278E0;6.575676927E0,,,,,
6.014293917E0;2.170500484E0;-4.218791821E0;-2.017946627E0;5.155713856E0,,,,,
6.024311917E0;5.743240464E-1;-3.303771569E0;-7.823153543E-1;3.443366376E0,,,,,
6.034330917E0;-5.806741226E-1;-1.721948876E0;6.956409073E-1;1.945817731E0,,,,,
6.044348917E0;-1.528958600E0;3.372264683E-1;1.772473497E0;2.364973233E0,,,,,
6.054366917E0;-2.280559700E0;2.419133449E0;2.109928007E0;3.937633221E0,,,,,
6.064384917E0;-3.017403013E0;4.407339967E0;1.974854987E0;5.694683376E0,,,,,
6.074403917E0;-3.869259887E0;6.251496820E0;1.684899749E0;7.542630293E0,,,,,
6.084422292E0;-4.669710381E0;7.845702161E0;1.379451728E0;9.233857510E0,,,,,
6.094440292E0;-5.285216952E0;9.125630770E0;1.283799466E0;1.062350207E1,,,,,
6.104458292E0;-5.650928716E0;9.924079177E0;1.179593824E0;1.148093134E1,,,,,
6.114477292E0;-5.893482331E0;1.041221527E1;9.628539848E-1;1.200310162E1,,,,,
6.124495292E0;-6.026535723E0;1.067805308E1;6.626696277E-1;1.227921339E1,,,,,
6.134513292E0;-6.160482570E0;1.081037089E1;4.716691589E-1;1.245143109E1,,,,,
6.144531292E0;-6.276225280E0;1.074670407E1;5.356330935E-1;1.245670722E1,,,,,
6.154550292E0;-6.393950197E0;1.055263849E1;6.038208374E-1;1.235335492E1,,,,,
6.164568292E0;-6.476186022E0;1.032510695E1;6.331914747E-1;1.220449714E1,,,,,
6.174586292E0;-6.586204308E0;1.025095023E1;6.869122569E-1;1.220376648E1,,,,,
6.184604292E0;-6.758056900E0;1.021793334E1;7.555666816E-1;1.227389000E1,,,,,
6.194622292E0;-6.967845057E0;1.018245126E1;9.603490376E-1;1.237559893E1,,,,,
6.204641292E0;-7.153435097E0;1.016066337E1;1.168784661E0;1.248105650E1,,,,,
6.214659292E0;-7.281887316E0;1.003604283E1;1.283534002E0;1.246577307E1,,,,,
6.224677292E0;-7.344948367E0;9.714002752E0;1.324435276E0;1.225007122E1,,,,,
6.234695292E0;-7.173468828E0;9.147274239E0;1.293974791E0;1.169639482E1,,,,,
6.244714292E0;-6.775365828E0;8.425108607E0;1.144599481E0;1.087189703E1,,,,,
6.254732292E0;-6.348417928E0;7.861253416E0;9.428611851E-1;1.014843351E1,,,,,
6.264750292E0;-5.979525864E0;7.458960301E0;7.879648610E-1;9.592273294E0,,,,,
6.274768292E0;-5.685997977E0;7.173940698E0;5.490452906E-1;9.170466120E0,,,,,
6.284787292E0;-5.398138965E0;6.893805274E0;-7.219907999E-2;8.756121753E0,,,,,
6.294805292E0;-4.805917761E0;6.313506542E0;-1.394753745E0;8.056211790E0,,,,,
6.304823292E0;-3.862323920E0;5.271452606E0;-2.980238110E0;7.182449292E0,,,,,
6.314841292E0;-3.142139910E0;4.123663470E0;-4.541853994E0;6.892465548E0,,,,,
6.324859292E0;-2.157626084E0;2.274879715E0;-6.854011463E0;7.537101643E0,,,,,
6.334878292E0;-6.185740203E-1;-1.697622120E-1;-7.808747174E0;7.835048529E0,,,,,
6.344896292E0;2.909744078E-1;-2.165545553E0;-2.482880963E0;3.307408581E0,,,,,
6.354914292E0;2.786223986E0;-7.030205027E0;2.936966375E0;8.112496429E0,,,,,
6.364932292E0;8.274828148E0;-1.528454921E1;7.849650786E0;1.907111016E1,,,,,
6.374951292E0;1.552007389E1;-2.349070473E1;7.920296845E0;2.924751279E1,,,,,
6.384969292E0;2.303951019E1;-3.134801303E1;1.032763295E0;3.891765089E1,,,,,
6.394987292E0;2.663420529E1;-3.277669130E1;-6.948325882E0;4.280153755E1,,,,,
6.405005292E0;2.131350802E1;-2.158090119E1;-6.981657350E0;3.112465999E1,,,,,
6.415024292E0;1.465373287E1;-1.109302880E1;3.380228226E-1;1.838209549E1,,,,,
6.425042292E0;1.168392386E1;-7.735768075E0;4.324168003E0;1.466474048E1,,,,,
6.435060292E0;9.425092412E0;-6.752638285E0;3.429099619E0;1.209087321E1,,,,,
6.445078292E0;7.688204484E0;-7.171755009E0;2.345133426E0;1.077228893E1,,,,,
6.455097292E0;6.501330219E0;-8.192012864E0;2.909237417E0;1.085541486E1,,,,,
6.465115292E0;5.565411433E0;-8.668487849E0;3.929473929E0;1.102530051E1,,,,,
6.475133292E0;4.783378499E0;-8.348132937E0;4.049367578E0;1.043884147E1,,,,,
6.485151292E0;3.965417349E0;-7.601329477E0;2.973951184E0;9.074642154E0,,,,,
6.495169292E0;2.974813648E0;-6.833383071E0;1.259087086E0;7.558435071E0,,,,,
6.505188292E0;1.777937720E0;-6.094795534E0;-4.854544084E-1;6.367359038E0,,,,,
6.515206292E0;7.280309737E-1;-5.348435878E0;-1.638855264E0;5.641067454E0,,,,,
6.525224292E0;-2.040806901E-1;-4.073985525E0;-1.375466266E0;4.304754864E0,,,,,
6.535242292E0;-9.261153442E-1;-2.270677906E0;-1.880340301E-2;2.452350169E0,,,,,
6.545261292E0;-1.468788997E0;-2.713634312E-1;1.253357692E0;1.949842233E0,,,,,
6.555279292E0;-2.175361859E0;1.632408124E0;2.033571557E0;3.395934154E0,,,,,
6.565297292E0;-2.849886716E0;3.384425138E0;2.094089069E0;4.895037981E0,,,,,
6.575315292E0;-3.619776737E0;5.120664024E0;1.535400478E0;6.456116348E0,,,,,
6.585334292E0;-4.443423720E0;6.754059159E0;7.385407591E-1;8.118298586E0,,,,,
6.595352292E0;-5.206923904E0;8.279850322E0;1.441747963E-1;9.782063395E0,,,,,
6.605370292E0;-5.735430923E0;9.585356407E0;-2.610044674E-1;1.117328728E1,,,,,
6.615388292E0;-6.012928083E0;1.052452040E1;-5.401622736E-1;1.213312033E1,,,,,
6.625407292E0;-6.059580678E0;1.117664866E1;-6.629853773E-1;1.273088932E1,,,,,
6.635425292E0;-6.098681009E0;1.156607206E1;-5.939402489E-1;1.308895328E1,,,,,
6.645443292E0;-6.244304745E0;1.173041741E1;-2.281513016E-1;1.329082719E1,,,,,
6.655461292E0;-6.369159172E0;1.185074609E1;2.189209600E-1;1.345564186E1,,,,,
6.665480292E0;-6.332757331E0;1.173289663E1;6.072754820E-1;1.334666483E1,,,,,
6.675498292E0;-6.251794444E0;1.159148873E1;9.975256348E-1;1.320767210E1,,,,,
6.685516292E0;-6.258338063E0;1.147505196E1;1.409321644E0;1.314647482E1,,,,,
6.695534292E0;-6.302091608E0;1.126379323E1;1.668291317E0;1.301432259E1,,,,,
6.705553292E0;-6.395164078E0;1.098518510E1;1.759112610E0;1.283225983E1,,,,,
6.715571292E0;-6.378709429E0;1.062553456E1;1.707829020E0;1.251025973E1,,,,,
6.725589292E0;-6.191089820E0;1.013342353E1;1.443775778E0;1.196245602E1,,,,,
6.735607292E0;-5.884517380E0;9.428024790E0;9.992833078E-1;1.115857354E1,,,,,
6.745625292E0;-5.600490634E0;8.685495061E0;5.653275204E-1;1.035002005E1,,,,,
6.755644292E0;-5.448178852E0;8.172732255E0;2.371618243E-1;9.825092928E0,,,,,
6.765662292E0;-5.347742398E0;7.804064139E0;-1.014258758E-1;9.461080966E0,,,,,
6.775680292E0;-5.235523805E0;7.436285968E0;-5.435853068E-1;9.110682933E0,,,,,
6.785698292E0;-5.089195479E0;6.952895481E0;-1.179029056E0;8.696710626E0,,,,,
6.795717292E0;-4.752595832E0;6.290836887E0;-2.057387266E0;8.148290511E0,,,,,
6.805735292E0;-4.097655639E0;5.408311951E0;-3.070196353E0;7.447598643E0,,,,,
6.815753292E0;-3.121623200E0;4.129132370E0;-4.449451615E0;6.825824873E0,,,,,
6.825771292E0;-1.898184541E0;2.206947348E0;-6.327435780E0;6.964923883E0,,,,,
6.835790292E0;-8.277786255E-1;3.557937169E-1;-5.117770822E0;5.196478116E0,,,,,
6.845808292E0;2.662880480E-1;-1.368047903E0;4.893219030E-1;1.477125694E0,,,,,
6.855826292E0;3.232539033E0;-5.861827260E0;4.209939137E0;7.907838830E0,,,,,
6.865844292E0;8.421385685E0;-1.162600953E1;8.378043784E0;1.662153579E1,,,,,
6.875863292E0;1.499228900E1;-1.693936737E1;6.354937574E0;2.349672590E1,,,,,
6.885881292E0;2.212178033E1;-2.371541323E1;4.414297716E-1;3.243437760E1,,,,,
6.895899292E0;2.719871186E1;-2.961631568E1;-3.348769401E0;4.034984929E1,,,,,
6.905917292E0;2.716222758E1;-2.972102060E1;-6.011432365E0;4.070949510E1,,,,,
6.915936292E0;1.964299359E1;-1.864275485E1;-3.431663039E0;2.729790865E1,,,,,
6.925954292E0;1.243740425E1;-9.161309311E0;1.756829857E0;1.554686669E1,,,,,
6.935972292E0;8.862629442E0;-5.880691547E0;3.350536430E0;1.115144959E1,,,,,
6.945990292E0;7.176928625E0;-4.614093420E0;3.744620054E0;9.317743392E0,,,,,
6.956008292E0;6.501610301E0;-5.233925176E0;4.281017890E0;9.380406357E0,,,,,
6.966027292E0;6.364543964E0;-6.914349466E0;4.331954155E0;1.034801794E1,,,,,
6.976045292E0;6.264475300E0;-8.138368753E0;3.499645107E0;1.085007892E1,,,,,
6.986063292E0;5.896314722E0;-8.703002794E0;2.226282921E0;1.074546977E1,,,,,
6.996081292E0;5.124043715E0;-8.420304535E0;9.967853773E-1;9.907115299E0,,,,,
7.006100292E0;4.117063133E0;-7.486215343E0;5.132637660E-1;8.559034332E0,,,,,
7.016118292E0;3.170327582E0;-6.357647173E0;1.100552405E0;7.189010374E0,,,,,
7.026136292E0;2.101951236E0;-4.660183513E0;1.735659574E0;5.398890953E0,,,,,
7.036154292E0;9.646052259E-1;-2.559023405E0;1.973636427E0;3.372581322E0,,,,,
7.046173292E0;-1.497775984E-1;-3.718109947E-1;2.084563955E0;2.122753784E0,,,,,
7.056191292E0;-1.397392740E0;1.922738754E0;1.877383071E0;3.028893854E0,,,,,
7.066209292E0;-2.595309471E0;4.200478342E0;1.508461186E0;5.162858191E0,,,,,
7.076227292E0;-3.583307068E0;6.201586157E0;1.034039085E0;7.236642677E0,,,,,
7.086246042E0;-4.423101430E0;7.957570506E0;6.374821615E-1;9.126507444E0,,,,,
7.096264042E0;-5.037824766E0;9.429356201E0;4.028602946E-1;1.069835189E1,,,,,
7.106282042E0;-5.239765960E0;1.049502470E1;2.868468217E-1;1.173383875E1,,,,,
7.116300042E0;-5.169745553E0;1.103171256E1;1.952677667E-1;1.218454269E1,,,,,
7.126319042E0;-5.105280000E0;1.131600068E1;9.474477410E-2;1.241469822E1,,,,,
7.136337042E0;-5.173055077E0;1.151518257E1;5.627945065E-3;1.262378549E1,,,,,
7.146355042E0;-5.386568495E0;1.155893378E1;8.043137491E-2;1.275266793E1,,,,,
7.156373042E0;-5.671591022E0;1.156037102E1;2.740151435E-1;1.287960431E1,,,,,
7.166392042E0;-5.867140625E0;1.152960063E1;4.743214560E-1;1.294526982E1,,,,,
7.176410042E0;-6.030504813E0;1.141232654E1;5.888830286E-1;1.292110555E1,,,,,
7.186428042E0;-6.234180876E0;1.119386638E1;6.385755908E-1;1.282869574E1,,,,,
7.196446042E0;-6.353796197E0;1.090557409E1;6.926594120E-1;1.264049245E1,,,,,
7.206465042E0;-6.413184612E0;1.064429827E1;7.771546018E-1;1.245126467E1,,,,,
7.216483042E0;-6.429713522E0;1.027542667E1;9.147097653E-1;1.215575186E1,,,,,
7.226501042E0;-6.279136609E0;9.597469499E0;1.008052962E0;1.151325966E1,,,,,
7.236519042E0;-5.949731376E0;8.783364587E0;9.548538244E-1;1.065169201E1,,,,,
7.246538042E0;-5.658316673E0;8.141936724E0;9.009483433E-1;9.955872092E0,,,,,
7.256556042E0;-5.444544223E0;7.794109254E0;9.054588854E-1;9.550447982E0,,,,,
7.266574042E0;-5.232166334E0;7.643439370E0;8.814344305E-1;9.304550317E0,,,,,
7.276592042E0;-5.046586819E0;7.563882739E0;7.452960473E-1;9.123367076E0,,,,,
7.286611042E0;-4.863433313E0;7.520825597E0;6.555284232E-1;8.980285005E0,,,,,
7.296629042E0;-4.673732681E0;7.396445380E0;5.717272979E-1;8.768013089E0,,,,,
7.306647042E0;-4.429947642E0;7.023808174E0;1.508815436E-1;8.305485092E0,,,,,
7.316665042E0;-3.777947429E0;5.790431587E0;-1.333831751E0;7.041384230E0,,,,,
7.326683042E0;-2.534348740E0;3.335635386E0;-4.152887853E0;5.898801953E0,,,,,
7.336702042E0;-7.475928336E-1;1.950537586E-1;-8.723340579E0;8.757488902E0,,,,,
7.346720042E0;8.308068985E-1;-1.677242235E0;-9.090088470E0;9.280791454E0,,,,,
7.356738042E0;3.313025372E0;-5.506069211E0;-5.938433386E0;8.749738645E0,,,,,
7.366757042E0;6.806277718E0;-1.149362155E1;2.257776024E0;1.354718809E1,,,,,
7.376775042E0;1.136161481E1;-1.763385287E1;7.500138148E0;2.227759256E1,,,,,
7.386793042E0;1.488644387E1;-2.422652771E1;7.886199392E0;2.950801581E1,,,,,
7.396811042E0;1.726715994E1;-3.074204035E1;1.641431547E0;3.529762251E1,,,,,
7.406829042E0;1.598632034E1;-3.094244782E1;-5.475253215E0;3.525586352E1,,,,,
7.416848042E0;1.178911293E1;-2.024403590E1;-5.030264901E0;2.396054545E1,,,,,
7.426866042E0;9.246038389E0;-1.048787473E1;-1.519532304E0;1.406391555E1,,,,,
7.436884042E0;8.465719859E0;-6.940158491E0;-3.953535478E-2;1.094695280E1,,,,,
7.446902042E0;8.314361174E0;-5.752139926E0;-1.865986848E-1;1.011190064E1,,,,,
7.456921042E0;8.437610539E0;-5.884878153E0;1.224430346E-1;1.028785958E1,,,,,
7.466939042E0;8.388390432E0;-6.734600210E0;1.854785922E0;1.091605079E1,,,,,
7.476957042E0;7.701199921E0;-7.172288275E0;2.671396365E0;1.085755764E1,,,,,
7.486975042E0;6.619091973E0;-7.155943553E0;2.026159626E0;9.956165402E0,,,,,
7.496994042E0;5.393605619E0;-7.237660146E0;6.647863197E-1;9.050781558E0,,,,,
7.507012042E0;3.893258615E0;-7.314445782E0;-1.006110517E0;8.346905900E0,,,,,
7.517030042E0;2.059582896E0;-7.062699174E0;-2.202552581E0;7.679507745E0,,,,,
7.527048042E0;4.424710876E-1;-6.349542348E0;-2.004010373E0;6.672969824E0,,,,,
7.537067042E0;-7.623535448E-1;-5.056921772E0;-1.067786947E0;5.224347778E0,,,,,
7.547085042E0;-1.726122619E0;-3.257066349E0;-2.108541048E-1;3.692213421E0,,,,,
7.557103042E0;-2.439784060E0;-1.402121383E0;5.205121207E-1;2.861716880E0,,,,,
7.567121042E0;-3.250120441E0;5.064869893E-1;8.123864150E-1;3.388182941E0,,,,,
7.577140042E0;-4.183857631E0;2.458055440E0;6.090249689E-1;4.890563632E0,,,,,
7.587158042E0;-5.080556218E0;4.302926238E0;3.680085504E-1;6.668032392E0,,,,,
7.597176042E0;-5.872371544E0;5.954881604E0;2.731982875E-1;8.367795395E0,,,,,
7.607194042E0;-6.615895885E0;7.445475453E0;3.592903884E-1;9.966658048E0,,,,,
7.617213042E0;-7.145440199E0;8.749401035E0;7.060981409E-1;1.131847643E1,,,,,
7.627231042E0;-7.486641020E0;9.776200170E0;1.057033918E0;1.235885125E1,,,,,
7.637249042E0;-7.658469638E0;1.039738322E1;1.249415499E0;1.297377255E1,,,,,
7.647267042E0;-7.473143892E0;1.056238697E1;1.407242374E0;1.301507699E1,,,,,
7.657286042E0;-7.187784566E0;1.068798984E1;1.538732221E0;1.297170268E1,,,,,
7.667304042E0;-6.918567063E0;1.086768530E1;1.630188521E0;1.298578717E1,,,,,
7.677322042E0;-6.712135792E0;1.102725815E1;1.730595739E0;1.302490502E1,,,,,
7.687340042E0;-6.623804244E0;1.120779444E1;1.874081733E0;1.315300807E1,,,,,
7.697359042E0;-6.510491052E0;1.132498317E1;2.018150110E0;1.321796760E1,,,,,
7.707377042E0;-6.275134774E0;1.126285066E1;1.876058092E0;1.302876492E1,,,,,
7.717395042E0;-6.076472114E0;1.110194464E1;1.555288028E0;1.275129832E1,,,,,
7.727414042E0;-5.793160483E0;1.078694811E1;1.119643564E0;1.229522508E1,,,,,
7.737432042E0;-5.397381166E0;1.026905555E1;5.415609276E-1;1.161372091E1,,,,,
7.747450042E0;-4.906513844E0;9.539822969E0;-1.288072173E-1;1.072840583E1,,,,,
7.757468042E0;-4.379613348E0;8.799309944E0;-7.026131272E-1;9.854061791E0,,,,,
7.767487042E0;-3.845114980E0;8.176611298E0;-1.133784471E0;9.106445451E0,,,,,
7.777505042E0;-3.308399055E0;7.735405548E0;-1.629182800E0;8.569494728E0,,,,,
7.787523042E0;-2.608072189E0;7.377756509E0;-2.480611074E0;8.208944083E0,,,,,
7.797541042E0;-1.921606148E0;7.060456767E0;-3.219248897E0;7.994134313E0,,,,,
7.807560042E0;-1.308784618E0;6.525875076E0;-3.990346953E0;7.760337073E0,,,,,
7.817578042E0;-7.138310105E-1;5.584077500E0;-4.681237582E0;7.321575072E0,,,,,
7.827596042E0;-2.966877222E-1;4.416546409E0;-4.724607550E0;6.474242989E0,,,,,
7.837614042E0;-2.834262371E-1;2.940492246E0;-3.217309960E0;4.367826515E0,,,,,
7.847633042E0;-2.629504573E-1;1.173079514E0;6.343201335E-1;1.359272055E0,,,,,
7.857651042E0;1.611466906E0;-2.762196608E0;4.024697006E0;5.140500139E0,,,,,
7.867669042E0;6.045849661E0;-1.072216330E1;6.672393436E0;1.400135416E1,,,,,
7.877687042E0;1.320166341E1;-2.081836580E1;7.563705568E0;2.578561446E1,,,,,
7.887706042E0;2.009649428E1;-3.055014409E1;3.334227376E0;3.671917017E1,,,,,
7.897724042E0;2.286791780E1;-3.505904434E1;-2.733783452E-1;4.185872657E1,,,,,
7.907742042E0;1.956541858E1;-2.902230406E1;-3.658023959E0;3.519205701E1,,,,,
7.917760042E0;1.296180594E1;-1.503377032E1;-6.738127250E0;2.096246698E1,,,,,
7.927779042E0;8.966839104E0;-8.577501665E0;-4.160052447E0;1.308754273E1,,,,,
7.937797042E0;6.942112631E0;-7.873724942E0;8.211221552E-1;1.052913642E1,,,,,
7.947815042E0;5.558410562E0;-7.089916794E0;9.014547122E-1;9.054030523E0,,,,,
7.957833042E0;4.370245816E0;-7.809045966E0;8.029232812E-1;8.984705515E0,,,,,
7.967852042E0;3.364994255E0;-9.565847172E0;2.111333678E0;1.035791235E1,,,,,
7.977870042E0;2.599961516E0;-9.926827369E0;3.413389320E0;1.081447771E1,,,,,
7.987888042E0;1.934641930E0;-9.092612713E0;3.669986193E0;9.994360610E0,,,,,
7.997906042E0;1.547618235E0;-7.878188122E0;2.916796989E0;8.542170389E0,,,,,
8.007925042E0;1.114664075E0;-6.146581984E0;1.542728208E0;6.434512912E0,,,,,
8.017943042E0;3.645423210E-1;-4.047920392E0;-6.494034648E-2;4.064820765E0,,,,,
8.027961042E0;-4.357505903E-1;-2.025887146E0;-1.035092826E0;2.316358017E0,,,,,
8.037979042E0;-1.312996075E0;-8.835902989E-2;-1.171270970E0;1.761715555E0,,,,,
8.047998042E0;-2.239989379E0;1.736469852E0;-6.714404511E-1;2.912681281E0,,,,,
8.058016042E0;-2.995508991E0;3.330898556E0;1.809070051E-1;4.483378932E0,,,,,
8.068034042E0;-3.663562150E0;4.676092032E0;7.820300102E-1;5.991585371E0,,,,,
8.078052042E0;-4.317851840E0;5.869174871E0;1.011479430E0;7.356231971E0,,,,,
8.088074833E0;-4.898566601E0;7.015914432E0;9.359123540E-1;8.607841890E0,,,,,
8.098092833E0;-5.414049239E0;8.047241067E0;7.950833344E-1;9.731504275E0,,,,,
8.108110833E0;-5.804346206E0;8.968962228E0;7.533822349E-1;1.070982274E1,,,,,
8.118128833E0;-6.060199898E0;9.751815526E0;6.125169627E-1;1.149778700E1,,,,,
8.128147833E0;-6.104750419E0;1.034381103E1;3.870962743E-1;1.201716471E1,,,,,
8.138165833E0;-5.955774474E0;1.076083094E1;6.434970461E-2;1.229922245E1,,,,,
8.148183833E0;-5.747487881E0;1.101693782E1;-1.522462928E-1;1.242697528E1,,,,,
8.158201833E0;-5.632849710E0;1.127709915E1;-1.614801792E-1;1.260666637E1,,,,,
8.168220833E0;-5.603239995E0;1.157869035E1;-1.646645729E-1;1.286427157E1,,,,,
8.178238833E0;-5.586815751E0;1.186620730E1;-2.134396704E-1;1.311735272E1,,,,,
8.188256833E0;-5.458889197E0;1.202221452E1;-1.822179508E-1;1.320478385E1,,,,,
8.198274833E0;-5.149397242E0;1.193491325E1;1.668667074E-1;1.299947271E1,,,,,
8.208293833E0;-4.705010607E0;1.145886336E1;5.472725610E-1;1.239928149E1,,,,,
8.218311833E0;-4.212016360E0;1.037029658E1;8.149754890E-1;1.122266982E1,,,,,
8.228329833E0;-3.831936525E0;8.987293834E0;1.045516073E0;9.825899035E0,,,,,
8.238348833E0;-3.656324174E0;7.998631409E0;1.156424816E0;8.870407501E0,,,,,
8.248366833E0;-3.513686026E0;7.315604115E0;1.149805841E0;8.196713154E0,,,,,
8.258384833E0;-3.342212334E0;6.681748981E0;1.051799490E0;7.544695812E0,,,,,
8.268402833E0;-3.230162432E0;6.178243487E0;7.000917348E-1;7.006766042E0,,,,,
8.278421833E0;-3.039066362E0;5.756856875E0;-1.177537139E-1;6.510851816E0,,,,,
8.288439833E0;-2.697221763E0;5.162003254E0;-1.544637909E0;6.025544714E0,,,,,
8.298457833E0;-2.212201656E0;4.086814317E0;-3.363910182E0;5.736878867E0,,,,,
8.308475833E0;-1.838540602E0;2.712971823E0;-4.663223480E0;5.699657962E0,,,,,
8.318494833E0;-1.521986380E0;1.309157086E0;-5.385825899E0;5.747821799E0,,,,,
8.328512833E0;-1.104236151E0;3.065841347E-1;-4.428784046E0;4.574654024E0,,,,,
8.338530833E0;-3.498248792E-1;-7.755939800E-1;-1.100399208E-1;8.579232203E-1,,,,,
8.348548833E0;1.596621995E0;-4.219542603E0;4.096876205E0;6.094106679E0,,,,,
8.358567833E0;6.359929342E0;-1.068497735E1;7.837161133E0;1.469824945E1,,,,,
8.368585833E0;1.411281397E1;-1.945546637E1;7.531728315E0;2.518756878E1,,,,,
8.378603833E0;2.090905143E1;-2.847541164E1;3.346604762E0;3.548573324E1,,,,,
8.388621833E0;2.487102887E1;-3.344332534E1;-2.858762205E0;4.177555036E1,,,,,
8.398640833E0;2.253690224E1;-2.791259374E1;-8.564606216E0;3.688329340E1,,,,,
8.408658833E0;1.167919112E1;-1.516790895E1;-2.083111507E0;1.925638390E1,,,,,
8.418676833E0;5.561181557E0;-1.042303261E1;1.196858386E0;1.187429237E1,,,,,
8.428694833E0;3.378725272E0;-9.732095792E0;8.007130337E-1;1.033298671E1,,,,,
8.438713833E0;1.876899506E0;-9.123571966E0;1.144943662E-1;9.315332851E0,,,,,
8.448731833E0;7.781492132E-1;-8.899959821E0;3.192616291E-3;8.933913544E0,,,,,
8.458749833E0;1.057428020E-1;-8.761715856E0;9.058857322E-1;8.809056433E0,,,,,
8.468768833E0;-3.391461092E-1;-8.234344366E0;2.062429905E0;8.495473167E0,,,,,
8.478786833E0;-6.549372697E-1;-7.274873580E0;2.279284422E0;7.651657723E0,,,,,
8.488804833E0;-5.709694988E-1;-5.988257511E0;1.053138503E0;6.106908783E0,,,,,
8.498822833E0;1.856958747E-1;-4.465618581E0;-1.029642051E0;4.586544999E0,,,,,
8.508841833E0;1.059816608E0;-3.033229086E0;-2.270003722E0;3.934031880E0,,,,,
8.518859833E0;1.271647782E0;-2.120400955E0;-1.653714209E0;2.974551895E0,,,,,
8.528877833E0;6.549132961E-1;-1.622877163E0;-2.296786674E-1;1.765047875E0,,,,,
8.538895833E0;-3.527204204E-1;-1.004203740E0;8.119958210E-1;1.338721054E0,,,,,
8.548914833E0;-1.297881315E0;1.503634894E-1;1.339743286E0;1.871367725E0,,,,,
8.558932833E0;-2.228785529E0;1.966339102E0;1.428385906E0;3.297614395E0,,,,,
8.568950833E0;-3.248700153E0;4.118148376E0;1.157899557E0;5.371585437E0,,,,,
8.578968833E0;-4.284030375E0;6.227191114E0;8.109713888E-1;7.601874771E0,,,,,
8.588987833E0;-5.213610195E0;8.023058152E0;7.043134245E-1;9.594125848E0,,,,,
8.599005833E0;-5.975716987E0;9.541893468E0;7.325930444E-1;1.128244730E1,,,,,
8.609023833E0;-6.482601587E0;1.062745712E1;7.932112022E-1;1.247381867E1,,,,,
8.619041833E0;-6.689287212E0;1.127143203E1;7.083516578E-1;1.312606207E1,,,,,
8.629060833E0;-6.573708808E0;1.168300234E1;6.772303641E-1;1.342254939E1,,,,,
8.639078833E0;-6.115969471E0;1.190944278E1;8.949760703E-1;1.341793174E1,,,,,
8.649096833E0;-5.467008641E0;1.191619982E1;1.274491868E0;1.317225612E1,,,,,
8.659115833E0;-4.962551220E0;1.180924723E1;1.493923692E0;1.289639650E1,,,,,
8.669133833E0;-4.694633553E0;1.181385952E1;1.585556724E0;1.281096604E1,,,,,
8.679151833E0;-4.550089797E0;1.186414089E1;1.561891873E0;1.280236941E1,,,,,
8.689169833E0;-4.542314170E0;1.190023692E1;1.630551049E0;1.284161024E1,,,,,
8.699188833E0;-4.621894483E0;1.183875228E1;1.670378773E0;1.281827326E1,,,,,
8.709206833E0;-4.585034512E0;1.135958699E1;1.638543023E0;1.235910925E1,,,,,
8.719224833E0;-4.369306753E0;1.029727304E1;1.678567214E0;1.131115650E1,,,,,
8.729242833E0;-4.131580600E0;9.155696568E0;1.743104103E0;1.019485899E1,,,,,
8.739261833E0;-4.045993735E0;8.528602570E0;1.728379644E0;9.596583939E0,,,,,
8.749279833E0;-4.026341243E0;8.166976256E0;1.529066627E0;9.233036863E0,,,,,
8.759297833E0;-4.064003159E0;8.005705955E0;1.282608973E0;9.069318348E0,,,,,
8.769315833E0;-4.139359443E0;7.869178147E0;1.284749054E0;8.983809963E0,,,,,
8.779334833E0;-4.186759604E0;7.560899490E0;1.407048101E0;8.756479968E0,,,,,
8.789352833E0;-4.136276791E0;7.062874591E0;1.579542424E0;8.335942505E0,,,,,
8.799370833E0;-3.854572266E0;6.255250148E0;1.804142017E0;7.565765671E0,,,,,
8.809388833E0;-3.188595454E0;4.794487039E0;2.014210110E0;6.100105680E0,,,,,
8.819407833E0;-2.026301714E0;2.310638362E0;2.528877793E0;3.979971252E0,,,,,
8.829425833E0;-8.853853941E-2;-1.674185311E0;3.509896445E0;3.889744025E0,,,,,
8.839443833E0;4.575525185E0;-8.963652372E0;9.325643845E-1;1.010703571E1,,,,,
8.849462833E0;1.374042819E1;-2.174707906E1;-1.028900625E1;2.770556739E1,,,,,
8.859480833E0;1.853987075E1;-2.967827512E1;-7.779592956E0;3.584757855E1,,,,,
8.869498833E0;1.933733156E1;-3.035982891E1;-6.208619627E-1;3.600051490E1,,,,,
8.879516833E0;1.872578765E1;-2.486948520E1;2.010073936E0;3.119594228E1,,,,,
8.889535833E0;1.539903185E1;-1.551967043E1;1.881731061E0;2.194382063E1,,,,,
8.899553833E0;1.203828267E1;-1.061846644E1;3.661189642E0;1.646439761E1,,,,,
8.909571833E0;1.010429504E1;-9.048570900E0;1.448840636E0;1.364084135E1,,,,,
8.919589833E0;9.368766768E0;-8.802458670E0;-5.495681047E-1;1.286697690E1,,,,,
8.929608833E0;9.139128483E0;-9.127355114E0;-5.704356480E-1;1.292894727E1,,,,,
8.939626833E0;8.384403216E0;-9.270289131E0;8.236159927E-1;1.252656462E1,,,,,
8.949644833E0;7.228499313E0;-8.740341944E0;1.455359112E0;1.143515849E1,,,,,
8.959662833E0;6.316649421E0;-8.001146296E0;6.358917189E-1;1.021385139E1,,,,,
8.969681833E0;5.669261491E0;-7.429449989E0;-1.577768818E0;9.477689984E0,,,,,
8.979699833E0;5.084923503E0;-7.168808012E0;-4.664344976E0;9.950093939E0,,,,,
8.989717833E0;4.251320466E0;-6.901399053E0;-5.938082553E0;1.004807738E1,,,,,
8.999736833E0;2.756613101E0;-5.865695193E0;-4.183506798E0;7.714079661E0,,,,,
9.009754833E0;1.169014530E0;-4.287933977E0;-1.690523601E0;4.755085993E0,,,,,
9.019772833E0;-3.430386007E-2;-3.049266245E0;2.139215541E-1;3.056953355E0,,,,,
9.029790833E0;-7.610443532E-1;-2.241531290E0;1.500179189E0;2.802532539E0,,,,,
9.039809833E0;-1.547876974E0;-7.705975342E-1;2.263197563E0;2.848123399E0,,,,,
9.049827833E0;-2.353107567E0;1.224012855E0;2.449346012E0;3.610348816E0,,,,,
9.059845833E0;-3.016668310E0;3.200731934E0;2.359108272E0;4.991028395E0,,,,,
9.069863833E0;-3.823817959E0;5.275637459E0;2.161070094E0;6.864703805E0,,,,,
9.079882833E0;-4.701445559E0;7.373464068E0;2.016109432E0;8.974199683E0,,,,,
9.089897542E0;-5.475669537E0;9.044329330E0;1.901921496E0;1.074244643E1,,,,,
9.099915542E0;-6.024348865E0;1.032627406E1;1.875797160E0;1.210137720E1,,,,,
9.109934542E0;-6.328169605E0;1.116770126E1;1.896659002E0;1.297538428E1,,,,,
9.119952542E0;-6.352717386E0;1.172347326E1;2.117500151E0;1.350113515E1,,,,,
9.129970542E0;-6.170595914E0;1.205908706E1;2.677417828E0;1.380820050E1,,,,,
9.139988542E0;-6.032076545E0;1.228477555E1;3.268653191E0;1.407074097E1,,,,,
9.150007542E0;-6.034401398E0;1.248592679E1;3.667881196E0;1.434453626E1,,,,,
9.160025542E0;-5.860100577E0;1.246650234E1;3.994949881E0;1.434273627E1,,,,,
9.170043542E0;-5.592019773E0;1.227314193E1;3.834026320E0;1.402142845E1,,,,,
9.180061542E0;-5.303201233E0;1.198162081E1;3.393125210E0;1.353500939E1,,,,,
9.190080542E0;-5.027734226E0;1.171238927E1;2.746961102E0;1.303855702E1,,,,,
9.200098542E0;-4.826538844E0;1.138147663E1;2.189576440E0;1.255498835E1,,,,,
9.210116542E0;-4.702741887E0;1.110708902E1;1.898803469E0;1.221018683E1,,,,,
9.220135542E0;-4.619428127E0;1.089279792E1;1.719186652E0;1.195607651E1,,,,,
9.230153542E0;-4.477961176E0;1.064889301E1;1.548512274E0;1.165542573E1,,,,,
9.240171542E0;-4.271981311E0;1.033921746E1;1.378440160E0;1.127161653E1,,,,,
9.250189542E0;-4.038694655E0;9.988412583E0;1.276129381E0;1.084932932E1,,,,,
9.260208542E0;-3.825904245E0;9.656615254E0;1.260116927E0;1.046306151E1,,,,,
9.270226542E0;-3.693996030E0;9.376334819E0;1.295633061E0;1.016070501E1,,,,,
9.280244542E0;-3.607199084E0;9.173391997E0;1.305239013E0;9.943171267E0,,,,,
9.290262542E0;-3.486638560E0;8.961198880E0;1.284895526E0;9.701066453E0,,,,,
9.300281542E0;-3.255660093E0;8.634877469E0;1.046893677E0;9.287433333E0,,,,,
9.310299542E0;-2.514848276E0;7.673899271E0;-4.747939110E-4;8.075468537E0,,,,,
9.320317542E0;-7.437126213E-1;4.955601804E0;-3.753877366E0;6.261205394E0,,,,,
9.330336542E0;1.295688317E0;5.501972651E-1;-8.740412110E0;8.853040670E0,,,,,
9.340354542E0;2.165910419E0;-2.498996474E0;-5.992894353E0;6.844774214E0,,,,,
9.350372542E0;5.874126878E0;-8.682768504E0;-3.458970705E0;1.103903591E1,,,,,
9.360390542E0;1.226154924E1;-1.784367319E1;2.654586790E0;2.181259026E1,,,,,
9.370409542E0;1.973904463E1;-2.792294332E1;9.458603389E0;3.547937182E1,,,,,
9.380427542E0;2.590018794E1;-3.747215516E1;1.044845280E1;4.673491536E1,,,,,
9.390445542E0;2.705078900E1;-3.811732290E1;4.102013569E0;4.692016630E1,,,,,
9.400463542E0;2.192365796E1;-2.363726169E1;-5.638855970E0;3.272863601E1,,,,,
9.410482542E0;1.488246426E1;-9.903104045E0;-4.905415152E0;1.853705235E1,,,,,
9.420500542E0;1.004920608E1;-6.901990791E0;6.191394460E-1;1.220685682E1,,,,,
9.430518542E0;6.962079118E0;-6.619403629E0;2.655220628E-1;9.610283660E0,,,,,
9.440537542E0;5.294492390E0;-6.967570238E0;6.326699030E-1;8.773765206E0,,,,,
9.450555542E0;4.269532789E0;-7.767922499E0;1.901789349E0;9.065667814E0,,,,,
9.460573542E0;3.716711586E0;-8.340016417E0;3.226524003E0;9.684021684E0,,,,,
9.470591542E0;3.061935115E0;-8.220045000E0;3.841466317E0;9.576087401E0,,,,,
9.480610542E0;2.179188277E0;-7.777395573E0;3.191147178E0;8.684478324E0,,,,,
9.490628542E0;9.766265166E-1;-7.282573194E0;1.419751908E0;7.483673373E0,,,,,
9.500646542E0;-4.202826583E-1;-6.607902156E0;-1.022206732E0;6.699695144E0,,,,,
9.510664542E0;-1.505927002E0;-5.424212869E0;-3.873342998E0;6.833204766E0,,,,,
9.520683542E0;-1.708465197E0;-4.067993299E0;-4.156250002E0;6.061504507E0,,,,,
9.530701542E0;-1.650647636E0;-2.752811826E0;-1.949828904E0;3.755588279E0,,,,,
9.540719542E0;-2.023207367E0;-7.125890619E-1;7.594835121E-2;2.146373540E0,,,,,
9.550738542E0;-2.653065929E0;1.566757926E0;9.775445294E-1;3.232504065E0,,,,,
9.560756542E0;-3.199008760E0;3.525531315E0;9.833835590E-1;4.861077177E0,,,,,
9.570774542E0;-3.794372842E0;5.305211506E0;6.286329854E-1;6.552687526E0,,,,,
9.580792542E0;-4.453040343E0;7.016612590E0;2.184730268E-1;8.313251530E0,,,,,
9.590811542E0;-4.984429747E0;8.462474654E0;-1.364318768E-1;9.822251821E0,,,,,
9.600829542E0;-5.289814033E0;9.669565668E0;-3.023267404E-1;1.102606159E1,,,,,
9.610847542E0;-5.344203079E0;1.058869944E1;-1.476293314E-1;1.186182350E1,,,,,
9.620865542E0;-5.235692790E0;1.122397252E1;2.760493167E-1;1.238814923E1,,,,,
9.630884542E0;-4.992181401E0;1.161425896E1;7.746730435E-1;1.266542556E1,,,,,
9.640902542E0;-4.670521097E0;1.182792324E1;1.272982117E0;1.278021983E1,,,,,
9.650920542E0;-4.347917638E0;1.188334198E1;1.542320073E0;1.274742937E1,,,,,
9.660939542E0;-4.173877603E0;1.186748901E1;1.601238956E0;1.268158175E1,,,,,
9.670957542E0;-4.099749235E0;1.179368194E1;1.597026622E0;1.258766744E1,,,,,
9.680975542E0;-4.045123084E0;1.173465079E1;1.487809989E0;1.250114509E1,,,,,
9.690993542E0;-4.023831910E0;1.159897902E1;1.305615427E0;1.234634234E1,,,,,
9.701012542E0;-4.079703518E0;1.143010675E1;1.166751072E0;1.219231845E1,,,,,
9.711030542E0;-4.154312527E0;1.125203799E1;9.766370416E-1;1.203413858E1,,,,,
9.721048542E0;-4.192768788E0;1.099993528E1;5.848479016E-1;1.178643005E1,,,,,
9.731067542E0;-4.039538409E0;1.058500166E1;3.461438376E-2;1.132966587E1,,,,,
9.741085542E0;-3.800090250E0;9.956589696E0;-5.138252449E-1;1.066950705E1,,,,,
9.751103542E0;-3.688135366E0;9.326648104E0;-7.364557151E-1;1.005639470E1,,,,,
9.761121542E0;-3.666752975E0;8.927342917E0;-5.240707362E-1;9.665256286E0,,,,,
9.771140542E0;-3.537262876E0;8.686185032E0;-1.525947503E-1;9.380049266E0,,,,,
9.781158542E0;-3.246756831E0;8.431566272E0;-3.320739019E-1;9.041184259E0,,,,,
9.791176542E0;-2.849958052E0;8.170751803E0;-7.445353977E-1;8.685492437E0,,,,,
9.801194542E0;-2.295606925E0;7.703431218E0;-1.057108762E0;8.107412819E0,,,,,
9.811213542E0;-1.549167747E0;6.718495224E0;-1.895330515E0;7.150550786E0,,,,,
9.821231542E0;-5.809255528E-1;4.985483415E0;-3.450115682E0;6.090633596E0,,,,,
9.831249542E0;4.603840327E-1;2.189929612E0;-5.728696100E0;6.150260495E0,,,,,
9.841268542E0;1.082096838E0;-6.047377539E-1;-3.288690430E0;3.514559156E0,,,,,
9.851286542E0;2.496237758E0;-4.151537731E0;2.302090902E0;5.363402931E0,,,,,
9.861304542E0;6.184095381E0;-1.033262881E1;5.593233654E0;1.327744390E1,,,,,
9.871322542E0;1.169487803E1;-1.935092868E1;4.696860173E0;2.309305325E1,,,,,
9.881341542E0;1.723343788E1;-3.024105325E1;3.386060604E0;3.497110363E1,,,,,
9.891359542E0;2.012447906E1;-3.832718415E1;1.909034050E0;4.333142177E1,,,,,
9.901377542E0;1.761483188E1;-3.608648433E1;-5.982719028E-1;4.016060984E1,,,,,
9.911396542E0;1.195660876E1;-2.256475837E1;-4.234878681E0;2.588557535E1,,,,,
9.921414542E0;8.794999961E0;-1.212902678E1;-7.225259371E0;1.663339075E1,,,,,
9.931432542E0;7.561316981E0;-1.011020541E1;-5.804612839E-1;1.263830302E1,,,,,
9.941450542E0;6.592681854E0;-8.579693202E0;1.452669393E0;1.091718086E1,,,,,
9.951469542E0;5.613911163E0;-7.865563983E0;1.862691357E0;9.841377669E0,,,,,
9.961487542E0;4.294482858E0;-8.649194376E0;2.941573981E0;1.009475130E1,,,,,
9.971505542E0;3.241378854E0;-9.136292583E0;3.730463945E0;1.038723930E1,,,,,
9.981523542E0;2.585248460E0;-8.638917895E0;3.545041720E0;9.689258630E0,,,,,
9.991542542E0;1.961577422E0;-7.843813511E0;2.604472643E0;8.494496696E0,,,,,
1.000156054E1;1.069291144E0;-6.665166863E0;7.488166559E-1;6.791800883E0,,,,,
1.001157854E1;-6.767801285E-2;-4.990852329E0;-1.764315462E0;5.293958474E0,,,,,
1.002159754E1;-1.332964317E0;-2.705195611E0;-4.088995328E0;5.080822763E0,,,,,
1.003161554E1;-2.157186081E0;-6.056130821E-1;-3.424696666E0;4.092525656E0,,,,,
1.004163354E1;-2.441481507E0;7.507854134E-1;-9.208475876E-1;2.715229450E0,,,,,
1.005165154E1;-2.584403537E0;2.041293390E0;7.817586994E-1;3.384843720E0,,,,,
1.006167054E1;-2.786257608E0;3.503031814E0;1.571331618E0;4.743790299E0,,,,,
1.007168854E1;-3.184958485E0;5.146618645E0;1.666670469E0;6.277693405E0,,,,,
1.008170654E1;-3.658353450E0;6.912751422E0;1.605956344E0;7.984283184E0,,,,,
1.009172554E1;-4.198079521E0;8.765924097E0;1.462302096E0;9.828714278E0,,,,,
1.010174354E1;-4.569864788E0;1.026140739E1;1.389037653E0;1.131854988E1,,,,,
1.011176154E1;-4.568323755E0;1.118051952E1;1.367581880E0;1.215499399E1,,,,,
1.012177954E1;-4.268408369E0;1.166676579E1;1.399732211E0;1.250167926E1,,,,,
1.013179854E1;-3.864086563E0;1.200494652E1;1.359698664E0;1.268458460E1,,,,,
1.014181654E1;-3.530422803E0;1.218416953E1;1.283758535E0;1.275013366E1,,,,,
1.015183454E1;-3.416658791E0;1.228636600E1;1.441152717E0;1.283375502E1,,,,,
1.016185254E1;-3.317263726E0;1.226055171E1;1.566446854E0;1.279762175E1,,,,,
1.017187154E1;-3.371596931E0;1.231049161E1;1.732417731E0;1.288088276E1,,,,,
1.018188954E1;-3.500757247E0;1.231580088E1;1.697582359E0;1.291572834E1,,,,,
1.019190754E1;-3.667899030E0;1.223431408E1;1.490020237E0;1.285893015E1,,,,,
1.020192654E1;-3.889717248E0;1.212218320E1;1.306705348E0;1.279783984E1,,,,,
1.021194454E1;-4.049464642E0;1.211759079E1;9.294172668E-1;1.281007365E1,,,,,
1.022196254E1;-3.702808076E0;1.205585706E1;-3.588073353E-1;1.261678326E1,,,,,
1.023198154E1;-3.093318583E0;1.140472750E1;-1.311079066E0;1.188929592E1,,,,,
1.024199954E1;-3.415635821E0;1.041878052E1;-1.244296846E0;1.103475556E1,,,,,
1.025201754E1;-4.093139542E0;9.580980935E0;-1.049043040E0;1.047136468E1,,,,,
1.026203554E1;-4.463117435E0;8.848213132E0;-7.083550199E-1;9.935394290E0,,,,,
1.027205454E1;-4.453144716E0;8.177870788E0;-3.728335997E-1;9.319177720E0,,,,,
1.028207254E1;-4.228969777E0;7.576684633E0;-3.493171947E-1;8.684028898E0,,,,,
1.029209054E1;-3.892997536E0;6.935820442E0;-7.968537252E-1;7.993498038E0,,,,,
1.030210854E1;-3.500816012E0;6.176643105E0;-1.450167954E0;7.246352178E0,,,,,
1.031212754E1;-3.084157165E0;5.167089162E0;-1.993768390E0;6.339238774E0,,,,,
1.032214554E1;-2.491609102E0;3.766040744E0;-1.897336110E0;4.898067283E0,,,,,
1.033216354E1;-1.210284762E0;1.101210802E0;-5.798369475E-1;1.735991164E0,,,,,
1.034218254E1;1.441692415E0;-4.578213735E0;1.814124384E0;5.131234287E0,,,,,
1.035220054E1;5.415344397E0;-1.344972568E1;4.129438180E0;1.507558740E1,,,,,
1.036221854E1;1.096509640E1;-2.425285187E1;3.726083211E0;2.687597178E1,,,,,
1.037223654E1;1.769446043E1;-3.482765832E1;3.220683804E0;3.919735346E1,,,,,
1.038225554E1;2.473952265E1;-4.300798787E1;-1.068917799E-1;4.961594932E1,,,,,
1.039227354E1;2.656909771E1;-3.918101329E1;-1.204176059E1;4.884744368E1,,,,,
1.040229154E1;1.609554282E1;-2.014425200E1;-6.833077261E0;2.667486330E1,,,,,
1.041231054E1;9.192614719E0;-1.074201226E1;2.369435039E0;1.433559260E1,,,,,
1.042232854E1;7.258665683E0;-7.064724650E0;4.177839092E0;1.095686549E1,,,,,
1.043234654E1;5.679787649E0;-5.314292232E0;2.838778760E0;8.280118025E0,,,,,
1.044236454E1;4.522636535E0;-5.586966024E0;1.612732244E0;7.366772419E0,,,,,
1.045238354E1;4.070009711E0;-6.424020088E0;1.128275224E0;7.688043842E0,,,,,
1.046240154E1;4.003635920E0;-6.970801409E0;1.023556269E0;8.103631304E0,,,,,
1.047241954E1;3.717311218E0;-6.571554694E0;8.975125924E-1;7.603240273E0,,,,,
1.048243854E1;3.092122535E0;-5.621717196E0;5.932854704E-1;6.443361984E0,,,,,
1.049245654E1;2.143518507E0;-4.639327664E0;3.624783269E-1;5.123419102E0,,,,,
1.050247454E1;1.043928261E0;-3.768864949E0;6.292762522E-1;3.961075336E0,,,,,
1.051249254E1;4.805768073E-2;-2.700681560E0;1.208845105E0;2.959273039E0,,,,,
1.052251154E1;-8.046505487E-1;-1.359021556E0;1.702753637E0;2.322449578E0,,,,,
1.053252954E1;-1.724620469E0;4.518172771E-1;1.864584832E0;2.579754099E0,,,,,
1.054254754E1;-2.631475670E0;2.369544382E0;1.805167619E0;3.974674189E0,,,,,
1.055256654E1;-3.348760046E0;4.194299004E0;1.713414280E0;5.634015129E0,,,,,
1.056258454E1;-4.008638797E0;6.023139076E0;1.447751884E0;7.378575394E0,,,,,
1.057260254E1;-4.680209934E0;7.775423892E0;1.125703472E0;9.144877803E0,,,,,
1.058262054E1;-5.109512799E0;9.269409125E0;1.041684977E0;1.063551476E1,,,,,
1.059263954E1;-4.990018516E0;1.031189809E1;9.539884365E-1;1.149546089E1,,,,,
1.060265754E1;-4.567147295E0;1.100997027E1;8.038004366E-1;1.194673072E1,,,,,
1.061267554E1;-4.056383652E0;1.139663729E1;6.907222295E-1;1.211671107E1,,,,,
1.062269454E1;-3.649643438E0;1.167889291E1;6.763018262E-1;1.225454288E1,,,,,
1.063271254E1;-3.444922770E0;1.196846808E1;8.557774329E-1;1.248375249E1,,,,,
1.064273054E1;-3.394032113E0;1.223613490E1;1.217616074E0;1.275637254E1,,,,,
1.065274854E1;-3.320405143E0;1.239789345E1;1.271874654E0;1.289769427E1,,,,,
1.066276754E1;-3.272143687E0;1.257037929E1;9.776427627E-1;1.302601801E1,,,,,
1.067278554E1;-3.168571663E0;1.267313709E1;8.393725578E-1;1.309017939E1,,,,,
1.068280354E1;-3.007430294E0;1.257411917E1;8.398356573E-1;1.295601921E1,,,,,
1.069282254E1;-2.839441835E0;1.221265833E1;9.087017512E-1;1.257128444E1,,,,,
1.070284054E1;-2.683396313E0;1.184104088E1;9.390523819E-1;1.217754837E1,,,,,
1.071285854E1;-2.604762080E0;1.130242695E1;9.632212631E-1;1.163861829E1,,,,,
1.072287654E1;-2.591645021E0;1.062208002E1;8.311103690E-1;1.096521556E1,,,,,
1.073289554E1;-2.607956122E0;1.000362002E1;6.031391251E-1;1.035556012E1,,,,,
1.074291354E1;-2.611158934E0;9.480572548E0;4.521053986E-1;9.843973085E0,,,,,
1.075293154E1;-2.715486418E0;9.103311363E0;4.226763622E-1;9.509090365E0,,,,,
1.076295054E1;-3.018658994E0;8.857082773E0;4.122355740E-1;9.366437719E0,,,,,
1.077296854E1;-3.362392537E0;8.603520606E0;2.223951928E-1;9.239897727E0,,,,,
1.078298654E1;-3.471043451E0;8.262036195E0;-3.223195767E-1;8.967344904E0,,,,,
1.079300554E1;-3.322156969E0;7.657365099E0;-1.435512493E0;8.469513758E0,,,,,
1.080302354E1;-2.882372384E0;6.495691749E0;-3.745968422E0;8.033328157E0,,,,,
1.081304154E1;-2.084276857E0;4.572033228E0;-6.417108679E0;8.150274943E0,,,,,
1.082305954E1;-1.643081339E0;3.162075407E0;-6.594557641E0;7.495773985E0,,,,,
1.083307854E1;-1.490654952E0;2.075351082E0;-3.650394512E0;4.455840482E0,,,,,
1.084309654E1;-5.620402157E-2;-2.152479365E0;7.126375937E-1;2.268078184E0,,,,,
1.085311454E1;4.714240437E0;-1.437499143E1;5.630748221E0;1.614217355E1,,,,,
1.086313354E1;1.245464652E1;-3.369693312E1;8.692882433E0;3.696170622E1,,,,,
1.087315154E1;2.013292477E1;-4.719378034E1;7.037459668E0;5.178912435E1,,,,,
1.088316954E1;2.641675202E1;-4.713713252E1;-6.406593046E0;5.441321975E1,,,,,
1.089318754E1;2.479094540E1;-3.166379308E1;-1.896713966E1;4.446278391E1,,,,,
1.090320654E1;1.454455132E1;-1.702793866E1;-4.018926973E0;2.275184481E1,,,,,
1.091322454E1;1.016052421E1;-1.243416957E1;3.978129780E0;1.654298467E1,,,,,
1.092324254E1;8.896045110E0;-8.598580878E0;3.041244450E0;1.274065852E1,,,,,
1.093326154E1;7.195505814E0;-6.676442633E0;1.839707122E0;9.986726814E0,,,,,
1.094327954E1;5.893598106E0;-6.065493967E0;9.515384531E-1;8.510589940E0,,,,,
1.095329754E1;5.138689821E0;-5.792402683E0;-2.041617472E-2;7.743286043E0,,,,,
1.096331554E1;4.570212698E0;-5.549554954E0;4.196890198E-2;7.189309124E0,,,,,
1.097333454E1;4.196959195E0;-5.187960214E0;8.205665966E-1;6.723297346E0,,,,,
1.098335254E1;3.634137791E0;-4.664982322E0;1.424192283E0;6.082543975E0,,,,,
1.099337054E1;2.576658608E0;-3.807102231E0;1.823229668E0;4.945438646E0,,,,,
1.100338954E1;1.313455667E0;-2.717772387E0;1.763776349E0;3.496049133E0,,,,,
1.101340754E1;-2.800933242E-2;-1.537825318E0;1.666065867E0;2.267480254E0,,,,,
1.102342554E1;-1.230320832E0;-5.245069385E-2;1.869709039E0;2.238806002E0,,,,,
1.103344354E1;-2.336665196E0;1.695743995E0;2.098493046E0;3.569205093E0,,,,,
1.104346254E1;-3.266421309E0;3.544786781E0;2.130861039E0;5.270255237E0,,,,,
1.105348054E1;-3.845410849E0;5.301800240E0;2.012118123E0;6.851634091E0,,,,,
1.106349854E1;-4.261366860E0;7.017326535E0;1.721883388E0;8.388504134E0,,,,,
1.107351754E1;-4.547930128E0;8.591440258E0;1.589462664E0;9.850020595E0,,,,,
1.108353554E1;-4.616277940E0;9.921525114E0;1.605066544E0;1.105996931E1,,,,,
1.109355354E1;-4.539121883E0;1.086931901E1;1.582717170E0;1.188489448E1,,,,,
1.110357254E1;-4.372307544E0;1.153566537E1;1.634439447E0;1.244427744E1,,,,,
1.111359054E1;-4.140623903E0;1.206447469E1;1.840220361E0;1.288730875E1,,,,,
1.112360854E1;-3.921857346E0;1.253099830E1;2.062522291E0;1.329138373E1,,,,,
1.113362654E1;-3.732202030E0;1.286636535E1;2.066449281E0;1.355517989E1,,,,,
1.114364554E1;-3.649171860E0;1.298413997E1;1.926751113E0;1.362412257E1,,,,,
1.115366354E1;-3.615927515E0;1.308329354E1;1.866807797E0;1.370155002E1,,,,,
1.116368154E1;-3.645856488E0;1.326263817E1;1.837193989E0;1.387678358E1,,,,,
1.117370054E1;-3.719242553E0;1.326217039E1;1.844566158E0;1.389677491E1,,,,,
1.118371854E1;-3.767848118E0;1.318168464E1;1.702337315E0;1.381489927E1,,,,,
1.119373654E1;-3.634494179E0;1.301981734E1;1.507061362E0;1.360133910E1,,,,,
1.120375454E1;-3.350237345E0;1.278498146E1;1.229082391E0;1.327367639E1,,,,,
1.121377354E1;-3.047191360E0;1.252952947E1;8.737962127E-1;1.292431831E1,,,,,
1.122379154E1;-2.655646305E0;1.195330625E1;5.184984858E-1;1.225572635E1,,,,,
1.123380954E1;-2.059056354E0;1.102615069E1;4.247417450E-2;1.121684074E1,,,,,
1.124382854E1;-1.571079310E0;1.011804535E1;-5.792896481E-1;1.025566714E1,,,,,
1.125384654E1;-1.323723523E0;9.474282113E0;-1.194211936E0;9.640560548E0,,,,,
1.126386454E1;-1.159587356E0;8.863103067E0;-2.142681770E0;9.191861834E0,,,,,
1.127388354E1;-1.012783505E0;8.127221621E0;-3.043023173E0;8.737130635E0,,,,,
1.128390154E1;-8.779668854E-1;7.348356124E0;-3.517745748E0;8.194125867E0,,,,,
1.129391954E1;-8.248839614E-1;6.717586566E0;-3.462116507E0;7.602147955E0,,,,,
1.130393754E1;-9.318532169E-1;6.066906070E0;-3.479155294E0;7.055509991E0,,,,,
1.131395654E1;-1.043826227E0;5.104184816E0;-3.323834535E0;6.179818108E0,,,,,
1.132397454E1;-1.121564082E0;3.844897463E0;-1.073569698E0;4.146527992E0,,,,,
1.133399254E1;-7.573822421E-1;7.053893852E-1;1.743042122E0;2.027164987E0,,,,,
1.134401154E1;1.565909787E0;-7.639463848E0;3.952672173E0;8.742831272E0,,,,,
1.135402954E1;6.039605420E0;-2.209625607E1;2.448058309E0;2.303723845E1,,,,,
1.136404754E1;1.086784083E1;-3.921442194E1;-3.863147793E0;4.087547875E1,,,,,
1.137406554E1;1.424856878E1;-4.819059963E1;-3.718538256E-1;5.025429216E1,,,,,
1.138408454E1;1.623466796E1;-4.716438054E1;-3.007617112E0;4.997088148E1,,,,,
1.139410254E1;1.289772046E1;-3.242977834E1;-5.257897006E0;3.529429411E1,,,,,
1.140412054E1;8.895133529E0;-1.886008182E1;8.218963265E-1;2.086867510E1,,,,,
1.141413954E1;6.748947523E0;-1.201782911E1;2.038954504E0;1.393319219E1,,,,,
1.142415754E1;4.678998391E0;-7.541063395E0;8.364243916E-1;8.914048958E0,,,,,
1.143417554E1;3.099187725E0;-6.076979068E0;3.958390311E-1;6.833105274E0,,,,,
1.144419354E1;2.086769525E0;-6.356892298E0;5.053866164E-1;6.709702107E0,,,,,
1.145421254E1;1.666954498E0;-7.126480603E0;1.133202161E0;7.406052269E0,,,,,
1.146423054E1;1.799386623E0;-7.360394372E0;1.676457539E0;7.760393508E0,,,,,
1.147424854E1;1.940179975E0;-6.857344376E0;1.732262195E0;7.334044078E0,,,,,
1.148426754E1;1.723299583E0;-5.753474261E0;1.675974559E0;6.235472576E0,,,,,
1.149428554E1;1.197003104E0;-4.263664523E0;1.271901259E0;4.607535612E0,,,,,
1.150430354E1;5.240036394E-1;-2.600147458E0;4.339544718E-1;2.687687314E0,,,,,
1.151432254E1;1.532533295E-1;-7.656689161E-1;-7.320924497E-1;1.070371350E0,,,,,
1.152434054E1;6.503741026E-2;1.229993972E0;-1.914146855E0;2.276197096E0,,,,,
1.153435854E1;-2.069851483E-1;3.177487498E0;-1.579430012E0;3.554415397E0,,,,,
1.154437654E1;-5.782364184E-1;4.624777452E0;-1.524509454E-1;4.663278367E0,,,,,
1.155439554E1;-9.748662123E-1;5.946075697E0;8.152164674E-1;6.080358395E0,,,,,
1.156441354E1;-1.518002672E0;7.419513815E0;8.951268554E-1;7.625927449E0,,,,,
1.157443154E1;-2.061638630E0;8.812207732E0;7.878808804E-1;9.084388545E0,,,,,
1.158445054E1;-2.278881549E0;9.979538848E0;8.770428061E-1;1.027393307E1,,,,,
1.159446854E1;-2.213501785E0;1.088544329E1;1.104846600E0;1.116302610E1,,,,,
1.160448654E1;-2.075130350E0;1.155592129E1;1.294800417E0;1.181194273E1,,,,,
1.161450554E1;-1.841218335E0;1.205422452E1;1.375466266E0;1.227136183E1,,,,,
1.162452354E1;-1.570281458E0;1.234091584E1;1.547956789E0;1.253635345E1,,,,,
1.163454154E1;-1.349173091E0;1.242709327E1;1.749586326E0;1.262196370E1,,,,,
1.164455954E1;-1.259880846E0;1.244054772E1;1.926244744E0;1.265167760E1,,,,,
1.165457854E1;-1.225268252E0;1.239402493E1;2.083969878E0;1.262759148E1,,,,,
1.166459654E1;-1.239171762E0;1.229482107E1;2.083271720E0;1.253148805E1,,,,,
1.167461454E1;-1.298482701E0;1.210351421E1;1.857124808E0;1.231381444E1,,,,,
1.168463354E1;-1.405117204E0;1.192504081E1;1.633676970E0;1.211816212E1,,,,,
1.169465154E1;-1.509704596E0;1.183621927E1;1.425527787E0;1.201696401E1,,,,,
1.170466954E1;-1.504452919E0;1.166833401E1;1.179362347E0;1.182388653E1,,,,,
1.171468854E1;-1.439737106E0;1.143293213E1;8.217630100E-1;1.155249213E1,,,,,
1.172470654E1;-1.423238018E0;1.096905380E1;2.916698610E-1;1.106484609E1,,,,,
1.173472454E1;-1.424774520E0;1.013928010E1;-2.369279357E-1;1.024163650E1,,,,,
1.174474254E1;-1.295045270E0;9.345159804E0;-7.005302759E-1;9.460438504E0,,,,,
1.175476154E1;-9.218829833E-1;8.765192610E0;-1.149920301E0;8.888238657E0,,,,,
1.176477954E1;-3.691146974E-1;8.325066256E0;-1.507514960E0;8.468504896E0,,,,,
1.177479754E1;1.111351043E-1;7.944695522E0;-1.497555836E0;8.085370210E0,,,,,
1.178481654E1;3.982684761E-1;7.520947804E0;-1.146602737E0;7.618265648E0,,,,,
1.179483454E1;5.645173886E-1;6.767183819E0;-1.220854189E0;6.899560977E0,,,,,
1.180485254E1;6.974997371E-1;5.342445406E0;-1.836366023E0;5.692140983E0,,,,,
1.181487154E1;1.108031140E0;2.252733386E0;-2.692987794E0;3.681674072E0,,,,,
1.182488954E1;1.478000408E0;-2.362176306E0;1.511531559E-1;2.790557181E0,,,,,
1.183490754E1;2.376785866E0;-8.174605118E0;2.652090029E0;8.916662011E0,,,,,
1.184492554E1;4.803929416E0;-1.677668614E1;3.203228988E0;1.774248042E1,,,,,
1.185494454E1;7.869794444E0;-2.656979002E1;2.698015230E0;2.784181554E1,,,,,
1.186496254E1;1.004562408E1;-3.483612977E1;1.848071125E0;3.630269780E1,,,,,
1.187498054E1;1.017126086E1;-3.651018293E1;-4.980526730E-2;3.790053411E1,,,,,
1.188499954E1;8.600697570E0;-2.837344555E1;-5.871292148E0;3.022410433E1,,,,,
1.189501754E1;6.114868441E0;-1.770743189E1;-8.595899345E0;2.061150761E1,,,,,
1.190503554E1;3.666228480E0;-1.355774831E1;-2.863392030E0;1.433362426E1,,,,,
1.191505454E1;2.234964867E0;-1.208870906E1;1.395322241E0;1.237250495E1,,,,,
1.192507254E1;1.148631136E0;-1.085503075E1;2.896177368E0;1.129331172E1,,,,,
1.193509054E1;-2.566699630E-1;-1.030820499E1;3.337020006E0;1.083792748E1,,,,,
1.194510854E1;-1.140205152E0;-1.017108779E1;3.193776087E0;1.072153442E1,,,,,
1.195512754E1;-1.203658990E0;-9.563284922E0;3.141245871E0;1.013768411E1,,,,,
1.196514554E1;-9.943685769E-1;-8.415837262E0;3.035314204E0;9.001567530E0,,,,,
1.197516354E1;-6.733833347E-1;-7.122411525E0;2.544111836E0;7.593068950E0,,,,,
1.198518254E1;-3.455091955E-1;-5.747074483E0;1.509922843E0;5.952151603E0,,,,,
1.199520054E1;-2.287400065E-1;-4.232095406E0;-2.877498145E-1;4.248029363E0,,,,,
1.200521854E1;-3.979150119E-1;-2.367185615E0;-2.691965700E0;3.606741386E0,,,,,
1.201523754E1;-5.468283918E-1;-5.085218203E-1;-3.362030886E0;3.443961006E0,,,,,
1.202525554E1;-4.919777083E-1;1.016593990E0;-1.636254423E0;1.988173519E0,,,,,
1.203527354E1;-5.161364300E-1;2.681202146E0;2.313651140E-1;2.740213783E0,,,,,
1.204529154E1;-5.832311100E-1;4.566943227E0;1.210317507E0;4.760461893E0,,,,,
1.205531054E1;-6.284704328E-1;6.593243186E0;1.556283224E0;6.803517346E0,,,,,
1.206532854E1;-6.535006088E-1;8.529222375E0;1.397134877E0;8.667565012E0,,,,,
1.207534654E1;-5.789480245E-1;1.018193437E1;8.261063218E-1;1.023178479E1,,,,,
1.208536479E1;-3.117378706E-1;1.153110454E1;1.167759863E-1;1.153590868E1,,,,,
1.209538279E1;1.456307530E-2;1.251313973E1;-2.347516751E-1;1.251535003E1,,,,,
1.210540079E1;3.121462986E-1;1.307078869E1;-3.649941646E-2;1.307456632E1,,,,,
1.211541979E1;6.082861367E-1;1.336371899E1;4.159159577E-1;1.338401970E1,,,,,
1.212543779E1;9.182283273E-1;1.346827071E1;7.865721273E-1;1.352243155E1,,,,,
1.213545579E1;1.250655401E0;1.348674324E1;1.043477879E0;1.358474248E1,,,,,
1.214547379E1;1.571938266E0;1.346387828E1;1.125874357E0;1.360200726E1,,,,,
1.215549279E1;1.835677221E0;1.340067456E1;1.082373412E0;1.356905751E1,,,,,
1.216551079E1;1.990725499E0;1.323525917E1;7.917434780E-1;1.340753262E1,,,,,
1.217552879E1;2.029304844E0;1.283096163E1;3.704316731E-1;1.299572522E1,,,,,
1.218554779E1;1.850919158E0;1.196920132E1;-1.877611113E-1;1.211292435E1,,,,,
1.219556579E1;1.471495965E0;1.069703314E1;-7.837537694E-1;1.082617607E1,,,,,
1.220558379E1;9.299797690E-1;9.374879447E0;-1.185875049E0;9.495237051E0,,,,,
1.221560279E1;1.652133706E-1;8.426317812E0;-1.288438647E0;8.525854882E0,,,,,
1.222562079E1;-7.580756488E-1;7.961496912E0;-1.012174153E0;8.061303138E0,,,,,
1.223563879E1;-1.581532963E0;7.863112831E0;-5.305189725E-1;8.038111736E0,,,,,
1.224565779E1;-2.131227367E0;7.821691740E0;-2.319144599E-2;8.106881620E0,,,,,
1.225567579E1;-2.508008203E0;7.624172210E0;5.338143902E-1;8.043821532E0,,,,,
1.226569379E1;-2.683331117E0;7.105025414E0;9.093962543E-1;7.649094951E0,,,,,
1.227571179E1;-2.632984544E0;6.273556611E0;1.291555213E0;6.925188447E0,,,,,
1.228573079E1;-2.437741628E0;5.082347220E0;1.690099093E0;5.884664175E0,,,,,
1.229574879E1;-2.194985991E0;3.379778940E0;2.157213271E0;4.571043457E0,,,,,
1.230576679E1;-1.849102428E0;8.316284323E-1;2.491102441E0;3.211911737E0,,,,,
1.231578579E1;-1.308177824E0;-3.001388658E0;2.444550126E0;4.086011308E0,,,,,
1.232580379E1;-3.885533273E-1;-8.079710070E0;1.979551470E0;8.327743544E0,,,,,
1.233582179E1;1.249954612E0;-1.468315606E1;4.617148590E-1;1.474349481E1,,,,,
1.234584079E1;3.378713577E0;-2.198573668E1;-2.296552420E0;2.236207673E1,,,,,
1.235585879E1;6.169646326E0;-2.811128447E1;-3.743919557E0;2.902284934E1,,,,,
1.236587679E1;9.655240574E0;-3.138711453E1;-4.743522123E0;3.317944592E1,,,,,
1.237589479E1;1.187460390E1;-2.852840612E1;-3.836247092E0;3.113828777E1,,,,,
1.238591379E1;9.880830832E0;-2.065652422E1;-1.929215130E0;2.297922283E1,,,,,
1.239593179E1;6.402412872E0;-1.555782234E1;-4.539427400E-2;1.682375663E1,,,,,
1.240594979E1;3.502332487E0;-1.322200704E1;1.228238053E0;1.373303942E1,,,,,
1.241596879E1;1.030825236E0;-1.196607540E1;1.672792504E0;1.212632657E1,,,,,
1.242598679E1;-5.605924451E-1;-1.081297290E1;1.529918128E0;1.093504899E1,,,,,
1.243600479E1;-1.294681134E0;-9.751027907E0;1.482563868E0;9.947700242E0,,,,,
1.244602379E1;-1.452167409E0;-8.826201289E0;1.285787519E0;9.036806345E0,,,,,
1.245604179E1;-1.365969510E0;-7.887517939E0;9.948113573E-1;8.066502438E0,,,,,
1.246605979E1;-1.190001064E0;-7.007735932E0;4.643192089E-1;7.123205581E0,,,,,
1.247607779E1;-8.860810666E-1;-5.951082668E0;-7.708303265E-1;6.065863827E0,,,,,
1.248609679E1;-4.309699798E-1;-4.752702836E0;-2.147189974E0;5.233005270E0,,,,,
1.249611479E1;7.490867972E-3;-3.563173935E0;-2.803171556E0;4.533655851E0,,,,,
1.250613279E1;1.376210178E-1;-2.336303546E0;-2.219743395E0;3.225602973E0,,,,,
1.251615179E1;-6.309547685E-2;-7.960855472E-1;-9.996155027E-1;1.279439092E0,,,,,
1.252616979E1;-3.911377966E-1;1.095699801E0;2.233753324E-1;1.184670152E0,,,,,
1.253618779E1;-6.922702798E-1;3.116171840E0;1.100703263E0;3.376583000E0,,,,,
1.254620679E1;-9.281554377E-1;5.131447459E0;1.543162072E0;5.438251072E0,,,,,
1.255622479E1;-1.169105161E0;7.097925725E0;1.497199448E0;7.347718194E0,,,,,
1.256624279E1;-1.454871162E0;8.891772550E0;1.269700660E0;9.099033407E0,,,,,
1.257626179E1;-1.507525631E0;1.033648681E1;1.221415595E0;1.051700761E1,,,,,
1.258627979E1;-1.230983029E0;1.133330961E1;1.345607897E0;1.147910652E1,,,,,
1.259629779E1;-7.593474913E-1;1.199408707E1;1.438928436E0;1.210393524E1,,,,,
1.260631679E1;-1.969315737E-1;1.239166265E1;1.532825364E0;1.248765947E1,,,,,
1.261633479E1;3.453926897E-1;1.263253052E1;1.640169718E0;1.274324449E1,,,,,
1.262635279E1;7.508321911E-1;1.283525582E1;1.808016382E0;1.298369995E1,,,,,
1.263637079E1;9.660553354E-1;1.309009736E1;2.035971254E0;1.328266128E1,,,,,
1.264638979E1;1.101942581E0;1.311871714E1;2.140319495E0;1.333776535E1,,,,,
1.265640779E1;1.152259918E0;1.305848848E1;2.060772950E0;1.327021513E1,,,,,
1.266642579E1;1.134013097E0;1.280943218E1;1.601172298E0;1.295883063E1,,,,,
1.267644479E1;1.157748114E0;1.251396068E1;7.773896599E-1;1.259142276E1,,,,,
1.268646279E1;1.433641384E0;1.210926787E1;-5.191169020E-1;1.220488338E1,,,,,
1.269648079E1;1.962604193E0;1.135896719E1;-2.428472621E0;1.178029839E1,,,,,
1.270649979E1;2.277143172E0;1.027698086E1;-3.885226879E0;1.122037007E1,,,,,
1.271651779E1;1.648697005E0;9.496543633E0;-3.165516786E0;1.014509928E1,,,,,
1.272653579E1;7.000450301E-1;9.197545676E0;-1.696360437E0;9.378835121E0,,,,,
1.273655379E1;1.581962368E-2;9.085842222E0;-4.012789882E-1;9.094712968E0,,,,,
1.274657279E1;-3.858554220E-1;9.021945603E0;7.818333976E-1;9.063975416E0,,,,,
1.275659079E1;-4.687899899E-1;8.900010107E0;1.752275022E0;9.082973726E0,,,,,
1.276660879E1;-4.704696026E-1;8.644973271E0;2.397934953E0;8.983707283E0,,,,,
1.277662779E1;-4.989040276E-1;8.156747137E0;2.654652278E0;8.592357523E0,,,,,
1.278664579E1;-5.035545375E-1;7.314076822E0;2.718658240E0;7.819232031E0,,,,,
1.279666379E1;-4.985379189E-1;5.868884264E0;2.808855050E0;6.525489196E0,,,,,
1.280668279E1;-4.789107163E-1;3.738720213E0;2.596184800E0;4.576850426E0,,,,,
1.281670079E1;-1.069973221E-1;-9.149723053E-2;5.232205510E-1;5.418301534E-1,,,,,
1.282671879E1;9.485785925E-1;-8.519333564E0;-4.202945867E0;9.546915716E0,,,,,
1.283673779E1;2.090330333E0;-1.903906275E1;-5.685724912E0;1.997956104E1,,,,,
1.284675579E1;2.569658906E0;-2.631159101E1;3.907167971E-1;2.643966014E1,,,,,
1.285677379E1;3.683749954E0;-3.379378172E1;2.695942976E0;3.410070095E1,,,,,
1.286679279E1;6.173372172E0;-3.889342851E1;-5.316895851E-1;3.938390533E1,,,,,
1.287681079E1;9.239271991E0;-3.229480823E1;-5.350272489E0;3.401388247E1,,,,,
1.288682879E1;9.052437079E0;-1.878394873E1;-6.130106285E0;2.173388024E1,,,,,
1.289684679E1;6.437039498E0;-1.223448014E1;-2.667265892E0;1.407949890E1,,,,,
1.290686579E1;3.410340582E0;-9.542171795E0;4.237955924E-1;1.014214317E1,,,,,
1.291688379E1;8.982878602E-1;-8.668218293E0;1.830445132E0;8.904799764E0,,,,,
1.292690179E1;-7.713984565E-1;-8.389817737E0;2.481823786E0;8.783139903E0,,,,,
1.293692079E1;-1.609914470E0;-8.442094769E0;2.623108889E0;8.985626797E0,,,,,
1.294693879E1;-1.785886425E0;-8.645687217E0;2.389049524E0;9.145756141E0,,,,,
1.295695679E1;-1.692178363E0;-8.540218649E0;2.066835051E0;8.948218220E0,,,,,
1.296697579E1;-1.606316679E0;-7.935684378E0;1.516470702E0;8.237416052E0,,,,,
1.297699379E1;-1.792057431E0;-6.683225403E0;9.425843194E-2;6.919960714E0,,,,,
1.298701179E1;-1.911860886E0;-4.894699545E0;-2.201875473E0;5.697503952E0,,,,,
1.299703079E1;-1.374196543E0;-3.113936450E0;-3.418290457E0;4.823870437E0,,,,,
1.300704879E1;-6.617621398E-1;-1.642632565E0;-2.502900660E0;3.066053259E0,,,,,
1.301706679E1;-5.309587562E-1;-3.250227445E-1;-7.702336181E-1;9.903619599E-1,,,,,
1.302708579E1;-6.824893498E-1;1.174378181E0;6.777555171E-1;1.517994850E0,,,,,
1.303710379E1;-6.969693947E-1;3.123916478E0;1.473097225E0;3.523440922E0,,,,,
1.304712179E1;-6.442330644E-1;5.319927778E0;1.595797684E0;5.591353866E0,,,,,
1.305713979E1;-5.727823914E-1;7.533428686E0;1.369402849E0;7.678273998E0,,,,,
1.306715879E1;-4.339309002E-1;9.321391457E0;9.662477819E-1;9.381378870E0,,,,,
1.307717679E1;-1.240445870E-1;1.061380504E1;4.071018648E-1;1.062233385E1,,,,,
1.308719554E1;3.118425357E-1;1.161729951E1;-8.525825143E-2;1.162179688E1,,,,,
1.309721454E1;7.520002455E-1;1.235245123E1;-4.107377366E-1;1.238213476E1,,,,,
1.310723254E1;1.205071166E0;1.297039901E1;-6.042922691E-1;1.304026902E1,,,,,
1.311725054E1;1.641268410E0;1.337845514E1;-5.882485326E-1;1.349158479E1,,,,,
1.312726954E1;1.999328362E0;1.360927983E1;-3.488635238E-1;1.375977896E1,,,,,
1.313728754E1;2.380039111E0;1.367483413E1;-6.504450001E-2;1.388055854E1,,,,,
1.314730554E1;2.823116993E0;1.360576916E1;2.482610091E-1;1.389779038E1,,,,,
1.315732454E1;3.121866736E0;1.346445833E1;5.073569819E-1;1.383094722E1,,,,,
1.316734254E1;3.195102820E0;1.325903278E1;4.975688525E-1;1.364764474E1,,,,,
1.317736054E1;3.021425897E0;1.281172429E1;5.025588298E-1;1.317276961E1,,,,,
1.318737954E1;2.711426404E0;1.194895125E1;3.356337599E-1;1.225732104E1,,,,,
1.319739754E1;2.231774626E0;1.081334478E1;1.057410479E-2;1.104125696E1,,,,,
1.320741554E1;1.646810401E0;9.724352324E0;-2.247715744E-1;9.865370489E0,,,,,
1.321743354E1;1.048618167E0;8.880515490E0;-1.918165939E-1;8.944269061E0,,,,,
1.322745254E1;4.297490081E-1;8.342119660E0;3.441788077E-2;8.353252614E0,,,,,
1.323747054E1;-1.200734505E-1;8.042525287E0;2.506432378E-1;8.047325808E0,,,,,
1.324748854E1;-5.787392058E-1;7.785209207E0;6.369059184E-1;7.832628589E0,,,,,
1.325750754E1;-8.735316262E-1;7.249550459E0;1.125083960E0;7.388156284E0,,,,,
1.326752554E1;-9.516361016E-1;6.308790178E0;1.745726286E0;6.614681024E0,,,,,
1.327754354E1;-9.105828005E-1;4.714850886E0;2.489220514E0;5.408807510E0,,,,,
1.328756254E1;-9.240907457E-1;2.142407536E0;3.143297074E0;3.914609847E0,,,,,
1.329758054E1;-1.049070595E0;-1.745009125E0;3.343283544E0;3.914479635E0,,,,,
1.330759854E1;-1.084719607E0;-7.530928416E0;2.461119965E0;7.996787538E0,,,,,
1.331761754E1;-3.886934047E-1;-1.461102247E1;4.521091993E-1;1.462318238E1,,,,,
1.332763554E1;1.335623923E0;-2.194405304E1;-3.564200706E0;2.227170586E1,,,,,
1.333765354E1;3.461709833E0;-2.714559576E1;-5.985256720E0;2.801232054E1,,,,,
1.334767254E1;4.804453619E0;-2.923048365E1;-4.853989768E0;3.001774751E1,,,,,
1.335769054E1;5.545312799E0;-2.680825351E1;-1.069372639E0;2.739665141E1,,,,,
1.336770854E1;4.604645781E0;-1.943859013E1;6.245832769E-1;1.998628663E1,,,,,
1.337772654E1;2.386995982E0;-1.331499063E1;-5.767366076E-1;1.353954765E1,,,,,
1.338774554E1;3.666252454E-1;-1.113636837E1;-1.172331509E0;1.120390448E1,,,,,
1.339776354E1;-8.495416698E-1;-1.073174338E1;-7.163611007E-1;1.078912463E1,,,,,
1.340778154E1;-1.219382664E0;-1.097125001E1;3.226095255E-1;1.104351836E1,,,,,
1.341780054E1;-1.579416855E0;-1.096185938E1;1.440109574E0;1.116829595E1,,,,,
1.342781854E1;-2.008009869E0;-1.037464340E1;1.943132672E0;1.074435172E1,,,,,
1.343783654E1;-2.249376207E0;-9.344278044E0;1.671923608E0;9.755539659E0,,,,,
1.344785554E1;-2.305850077E0;-8.127664840E0;6.093313265E-1;8.470369827E0,,,,,
1.345787354E1;-2.231545123E0;-6.733829547E0;-9.192255700E-1;7.153267061E0,,,,,
1.346789154E1;-1.811143473E0;-5.159844462E0;-2.020304224E0;5.829739678E0,,,,,
1.347791054E1;-9.140987313E-1;-3.762514288E0;-1.902066507E0;4.313924809E0,,,,,
1.348792854E1;-1.863025964E-1;-2.511680839E0;-1.113050390E0;2.753566862E0,,,,,
1.349794654E1;6.006318390E-2;-1.168844960E0;-3.914243102E-1;1.234106607E0,,,,,
1.350796554E1;1.495454639E-2;5.840105438E-1;5.279801846E-2;5.865829733E-1,,,,,
1.351798354E1;-6.269172661E-2;2.649849375E0;4.569131986E-1;2.689684301E0,,,,,
1.352800154E1;-7.023288064E-2;4.768104402E0;8.509933142E-1;4.843959318E0,,,,,
1.353802054E1;2.563105054E-2;6.806478277E0;1.138858830E0;6.901145045E0,,,,,
1.354803854E1;2.755884831E-1;8.474458523E0;1.294630994E0;8.577206170E0,,,,,
1.355805654E1;7.176873954E-1;9.714279326E0;1.251035178E0;9.820763057E0,,,,,
1.356807454E1;1.226250000E0;1.069379144E1;1.074110200E0;1.081732764E1,,,,,
1.357809354E1;1.738028866E0;1.150572411E1;7.739398026E-1;1.166196444E1,,,,,
1.358811154E1;2.231534013E0;1.228896684E1;3.632138336E-1;1.249521405E1,,,,,
1.359812954E1;2.774152702E0;1.298501237E1;1.304841256E-1;1.327868576E1,,,,,
1.360814854E1;3.267283773E0;1.349164905E1;5.576840401E-2;1.388174512E1,,,,,
1.361816654E1;3.786252229E0;1.380381552E1;-6.469710231E-2;1.431381202E1,,,,,
1.362818454E1;4.304362021E0;1.378594058E1;-2.444931364E-1;1.444435762E1,,,,,
1.363820354E1;4.869129086E0;1.333177331E1;-3.496471604E-1;1.419742409E1,,,,,
1.364822154E1;5.042870328E0;1.272702503E1;-1.549617398E-1;1.369057049E1,,,,,
1.365823954E1;4.786384260E0;1.208207364E1;1.495487530E-2;1.299562239E1,,,,,
1.366825854E1;4.221792027E0;1.139345407E1;-1.228862171E-1;1.215110795E1,,,,,
1.367827654E1;3.506121775E0;1.062859616E1;-3.630231778E-1;1.119784497E1,,,,,
1.368829454E1;2.805009044E0;9.763167896E0;-7.020728445E-1;1.018235873E1,,,,,
1.369831354E1;2.162833322E0;8.960065690E0;-1.043551408E0;9.276293693E0,,,,,
1.370833154E1;1.406220866E0;8.356109709E0;-1.042822845E0;8.537535129E0,,,,,
1.371834954E1;4.751413087E-1;8.075797114E0;-5.266785213E-1;8.106888956E0,,,,,
1.372836854E1;-3.185356242E-1;7.993433819E0;6.557878934E-2;8.000046858E0,,,,,
1.373838654E1;-7.438228413E-1;7.782686133E0;6.084999255E-1;7.841794949E0,,,,,
1.374840454E1;-9.408228457E-1;7.139095386E0;1.153543455E0;7.292632793E0,,,,,
1.375842354E1;-1.010486281E0;5.954506212E0;1.748394663E0;6.287615658E0,,,,,
1.376844154E1;-1.053548685E0;4.036603691E0;2.367276686E0;4.796679382E0,,,,,
1.377845954E1;-1.263404378E0;1.155429693E0;2.872761608E0;3.344243959E0,,,,,
1.378847754E1;-1.675250673E0;-3.209654201E0;2.644269962E0;4.483359069E0,,,,,
1.379849654E1;-1.932239310E0;-9.842271953E0;1.367225200E0;1.012290327E1,,,,,
1.380851454E1;-1.676675055E0;-1.854826267E1;-4.270993423E-1;1.862878690E1,,,,,
1.381853254E1;-9.642234027E-1;-2.658561493E1;-2.046557200E0;2.668169868E1,,,,,
1.382855154E1;1.028668856E-1;-3.245370982E1;-5.245277545E0;3.287501786E1,,,,,
1.383856954E1;1.681873814E0;-3.494678248E1;-8.146529127E0;3.592314354E1,,,,,
1.384858754E1;3.370944674E0;-2.669149397E1;-4.695659155E0;2.731022397E1,,,,,
1.385860654E1;3.153392876E0;-1.528784353E1;-1.484508651E0;1.568010881E1,,,,,
1.386862454E1;1.526770572E0;-1.050041934E1;-5.352728319E-1;1.062432830E1,,,,,
1.387864254E1;2.333152335E-2;-9.208589312E0;4.359766582E-1;9.218933622E0,,,,,
1.388866154E1;-6.868507880E-1;-9.883564990E0;1.539891139E0;1.002635954E1,,,,,
1.389867954E1;-6.614709485E-1;-1.114041815E1;2.660790685E0;1.147284914E1,,,,,
1.390869754E1;-4.414969414E-1;-1.166323290E1;3.381231681E0;1.215148752E1,,,,,
1.391871654E1;-4.190988895E-1;-1.089590981E1;3.263789477E0;1.138195133E1,,,,,
1.392873454E1;-5.043702972E-1;-9.231488178E0;2.540270215E0;9.587895292E0,,,,,
1.393875254E1;-6.532977104E-1;-7.256577643E0;1.394212439E0;7.418122762E0,,,,,
1.394877154E1;-6.908844166E-1;-5.347283977E0;-2.551209625E-1;5.397763788E0,,,,,
1.395878954E1;-4.020115712E-1;-3.561884040E0;-1.414542038E0;3.853512734E0,,,,,
1.396880754E1;7.678037345E-2;-2.225147976E0;-1.172384280E0;2.516279723E0,,,,,
1.397882654E1;3.356468430E-1;-9.692543471E-1;-3.841644073E-1;1.095305932E0,,,,,
1.398884454E1;4.436590956E-1;8.873243308E-1;1.552505191E-1;1.004131757E0,,,,,
1.399886254E1;3.725306408E-1;2.765084547E0;4.149464893E-1;2.820753839E0,,,,,
1.400888154E1;3.964163706E-1;4.578843480E0;6.384118688E-1;4.640099489E0,,,,,
1.401889954E1;5.800060782E-1;6.401800668E0;6.679567531E-1;6.462632983E0,,,,,
1.402891754E1;8.089467904E-1;8.134642323E0;4.450175865E-1;8.186870054E0,,,,,
1.403893554E1;1.205824652E0;9.658077058E0;1.240452083E-1;9.733850870E0,,,,,
1.404895454E1;1.687423114E0;1.096403689E1;-9.760647453E-2;1.109355798E1,,,,,
1.405897254E1;2.102693393E0;1.196952760E1;-1.509634137E-1;1.215375252E1,,,,,
1.406899054E1;2.446831417E0;1.275584947E1;-2.808417678E-2;1.298843594E1,,,,,
1.407900954E1;2.725110058E0;1.326295509E1;2.695402694E-1;1.354270484E1,,,,,
1.408902696E1;2.802516668E0;1.354355478E1;5.165056086E-1;1.384011394E1,,,,,
1.409904496E1;2.685466520E0;1.368544800E1;6.243189096E-1;1.396040799E1,,,,,
1.410906396E1;2.589170480E0;1.354487041E1;4.546210170E-1;1.379760843E1,,,,,
1.411908196E1;2.590944233E0;1.316693328E1;-8.409474688E-3;1.341943348E1,,,,,
1.412909996E1;2.656915736E0;1.274169102E1;-7.510795283E-1;1.303740816E1,,,,,
1.413911896E1;2.774778062E0;1.221175552E1;-1.645034602E0;1.263061776E1,,,,,
1.414913696E1;2.548237631E0;1.121116361E1;-2.257809938E0;1.171671499E1,,,,,
1.415915496E1;1.782987522E0;9.900090390E0;-2.183205314E0;1.029355234E1,,,,,
1.416917396E1;1.004451954E0;8.953317418E0;-1.934842490E0;9.214902711E0,,,,,
1.417919196E1;3.986853826E-1;8.347348241E0;-1.630940473E0;8.514525208E0,,,,,
1.418920996E1;-7.411740527E-2;7.994077597E0;-1.121484268E0;8.072700724E0,,,,,
1.419922896E1;-3.726728743E-1;7.832247133E0;-5.914693252E-1;7.863384525E0,,,,,
1.420924696E1;-5.021703554E-1;7.865069309E0;-2.500850480E-2;7.881124014E0,,,,,
1.421926496E1;-4.681497929E-1;7.913398300E0;5.579869989E-1;7.946847575E0,,,,,
1.422928396E1;-3.847894015E-1;7.701913281E0;1.104297035E0;7.790186327E0,,,,,
1.423930196E1;-2.619496333E-1;7.067776896E0;1.613939109E0;7.254439145E0,,,,,
1.424931996E1;-2.936654426E-1;5.800077154E0;2.139779212E0;6.189167106E0,,,,,
1.425933896E1;-4.819671290E-1;3.338426846E0;2.412308578E0;4.146880611E0,,,,,
1.426935696E1;-7.225791760E-1;-1.213460970E0;5.661323165E-1;1.521549865E0,,,,,
1.427937496E1;-9.219500801E-1;-7.094461250E0;-1.102244516E0;7.238529916E0,,,,,
1.428939396E1;-7.667813489E-1;-1.482975745E1;-1.734019722E0;1.495046769E1,,,,,
1.429941196E1;-6.525285092E-1;-2.282303223E1;6.359162772E-1;2.284121238E1,,,,,
1.430942996E1;-5.682116595E-1;-2.872266700E1;4.268204302E0;2.904362292E1,,,,,
1.431944896E1;1.280456320E0;-3.232011030E1;2.950702654E0;3.247977439E1,,,,,
1.432946696E1;5.349025862E0;-2.861667803E1;-5.089775523E0;2.955388560E1,,,,,
1.433948496E1;6.992078258E0;-1.816454967E1;-9.778572385E0;2.178211425E1,,,,,
1.434950296E1;5.117435777E0;-1.220891144E1;-5.319215587E0;1.426673480E1,,,,,
1.435952196E1;2.189251919E0;-1.026196287E1;-1.781555393E0;1.064305621E1,,,,,
1.436953996E1;-5.355230927E-1;-1.077949642E1;-8.135346254E-2;1.079309717E1,,,,,
1.437955796E1;-2.212856544E0;-1.153086129E1;1.776393471E0;1.187489242E1,,,,,
1.438957696E1;-2.993392883E0;-1.125503644E1;2.811444197E0;1.198083739E1,,,,,
1.439959496E1;-3.152948488E0;-1.017080361E1;3.076231849E0;1.108375084E1,,,,,
1.440961296E1;-3.055635909E0;-8.860112216E0;2.642685367E0;9.737673502E0,,,,,
1.441963196E1;-2.878762898E0;-7.376777101E0;1.759621317E0;8.111743548E0,,,,,
1.442964996E1;-2.849271589E0;-5.646250944E0;3.668250740E-1;6.335065820E0,,,,,
1.443966796E1;-2.735018165E0;-3.917339203E0;-1.909894760E0;5.145247203E0,,,,,
1.444968696E1;-2.248352944E0;-2.531827421E0;-3.683413739E0;5.003276709E0,,,,,
1.445970496E1;-1.470047464E0;-1.634013770E0;-3.050540353E0;3.759898535E0,,,,,
1.446972296E1;-7.955413907E-1;-9.106582296E-1;-1.144047503E0;1.664640864E0,,,,,
1.447974196E1;-4.957461657E-1;2.280560285E-1;1.328569988E-1;5.616269181E-1,,,,,
1.448975996E1;-4.725958695E-1;1.720575950E0;8.361426289E-1;1.970498148E0,,,,,
1.449977796E1;-3.661982524E-1;3.510560104E0;1.260811722E0;3.748036767E0,,,,,
1.450979696E1;-1.488604626E-1;5.751123680E0;1.407057602E0;5.922617168E0,,,,,
1.451981496E1;1.349563685E-1;8.093959150E0;1.266113977E0;8.193499408E0,,,,,
1.452983296E1;4.857206029E-1;9.956751080E0;8.703498638E-1;1.000651415E1,,,,,
1.453985196E1;9.817339133E-1;1.134878718E1;5.325913354E-1;1.140361458E1,,,,,
1.454986996E1;1.570052393E0;1.229045905E1;3.408962540E-1;1.239502555E1,,,,,
1.455988796E1;2.223327007E0;1.284048323E1;3.302086766E-1;1.303572900E1,,,,,
1.456990696E1;2.850435477E0;1.307315681E1;5.777517573E-1;1.339276702E1,,,,,
1.457992496E1;3.294513087E0;1.308803797E1;9.315000451E-1;1.352842366E1,,,,,
1.458994296E1;3.548742422E0;1.304224726E1;1.065547464E0;1.355836191E1,,,,,
1.459996196E1;3.691823497E0;1.302231293E1;8.748849642E-1;1.356376122E1,,,,,
1.460997996E1;3.827541758E0;1.309453774E1;4.625034291E-2;1.364254865E1,,,,,
1.461999796E1;4.116116468E0;1.320156985E1;-1.172848549E0;1.387801985E1,,,,,
1.463001696E1;4.511535304E0;1.282567107E1;-2.030937971E0;1.374687230E1,,,,,
1.464003496E1;4.655125671E0;1.187195394E1;-1.887225105E0;1.289089229E1,,,,,
1.465005296E1;4.221264609E0;1.078915836E1;-1.206692233E0;1.164822386E1,,,,,
1.466007196E1;3.444947328E0;9.766911868E0;-6.396982563E-1;1.037638874E1,,,,,
1.467008996E1;2.729261581E0;8.923267992E0;-4.282465295E-1;9.341144230E0,,,,,
1.468010796E1;2.124174894E0;8.269512445E0;-2.680024517E-1;8.542176559E0,,,,,
1.469012696E1;1.498242299E0;7.845387581E0;7.944144130E-2;7.987562033E0,,,,,
1.470014496E1;9.589723107E-1;7.530504493E0;5.097287587E-1;7.608413055E0,,,,,
1.471016296E1;5.113327231E-1;7.119696663E0;1.044787509E0;7.214091950E0,,,,,
1.472018196E1;1.528286755E-1;6.285756826E0;1.631186056E0;6.495757341E0,,,,,
1.473019996E1;-1.995729985E-1;4.759754578E0;2.193943141E0;5.244852670E0,,,,,
1.474021796E1;-6.290169282E-1;2.555609216E0;2.458678168E0;3.601652273E0,,,,,
1.475023696E1;-1.153114781E0;-3.183189118E-1;2.203654196E0;2.507407515E0,,,,,
1.476025496E1;-1.640265174E0;-4.223460823E0;9.204909074E-1;4.623353185E0,,,,,
1.477027296E1;-1.732435858E0;-9.894735510E0;-1.900180196E0;1.022339521E1,,,,,
1.478029196E1;-1.008808422E0;-1.782677123E1;-3.468321573E0;1.818902750E1,,,,,
1.479030996E1;-1.555572604E-1;-2.580043444E1;-2.776422883E0;2.594985818E1,,,,,
1.480032796E1;9.875926772E-1;-3.396153834E1;-3.634734499E0;3.416976325E1,,,,,
1.481034696E1;3.117467291E0;-3.906641956E1;-5.784725289E0;3.961523427E1,,,,,
1.482036496E1;3.515472058E0;-2.986672152E1;-3.855897245E0;3.031909533E1,,,,,
1.483038296E1;4.454025891E-1;-1.480250241E1;1.134991409E0;1.485263164E1,,,,,
1.484040096E1;-1.594203294E0;-8.567202380E0;2.289424664E0;9.009989237E0,,,,,
1.485041996E1;-2.682628866E0;-7.130616338E0;1.470048487E0;7.759074014E0,,,,,
1.486043796E1;-2.967613971E0;-8.069922416E0;1.207784493E0;8.682691050E0,,,,,
1.487045596E1;-2.821947550E0;-9.180057823E0;1.560164605E0;9.729900473E0,,,,,
1.488047496E1;-2.417146272E0;-9.673513123E0;2.444749077E0;1.026626759E1,,,,,
1.489049296E1;-1.923420247E0;-9.111774039E0;3.223596886E0;9.854722140E0,,,,,
1.490051096E1;-1.604021500E0;-7.844232756E0;3.371138510E0;8.687315313E0,,,,,
1.491052996E1;-1.242273710E0;-6.159130109E0;2.958699306E0;6.944928312E0,,,,,
1.492054796E1;-9.892766753E-1;-4.236159221E0;2.119696366E0;4.839093507E0,,,,,
1.493056596E1;-6.252556336E-1;-2.224394270E0;1.057017619E0;2.540897622E0,,,,,
1.494058496E1;-9.548342362E-2;-3.923546022E-1;-2.050420455E-1;4.528812852E-1,,,,,
1.495060296E1;6.026345104E-1;1.362218229E0;-1.359468284E0;2.016670739E0,,,,,
1.496062096E1;1.177942351E0;3.111084763E0;-2.041899161E0;3.903299728E0,,,,,
1.497063996E1;1.192985044E0;4.503566426E0;-2.337148468E0;5.212253527E0,,,,,
1.498065796E1;9.221648191E-1;5.822036372E0;-2.140980231E0;6.271386754E0,,,,,
1.499067596E1;8.194766025E-1;7.230450529E0;-1.459743354E0;7.421711892E0,,,,,
1.500069496E1;8.688659866E-1;8.493769537E0;-7.821340907E-1;8.573842942E0,,,,,
1.501071296E1;9.609961782E-1;9.746846563E0;-3.514164547E-1;9.800409435E0,,,,,
1.502073096E1;1.276298658E0;1.090320012E1;-1.322499847E-1;1.097844256E1,,,,,
1.503074996E1;1.755931724E0;1.188122178E1;-1.071315157E-1;1.201075370E1,,,,,
1.504076796E1;2.318560316E0;1.250907708E1;-1.590220463E-1;1.272312931E1,,,,,
1.505078596E1;2.905801885E0;1.295439986E1;-2.439517208E-1;1.327854182E1,,,,,
1.506080496E1;3.514131876E0;1.329287880E1;-4.904691267E-1;1.375828149E1,,,,,
1.507082296E1;4.173823224E0;1.327068628E1;-6.652622831E-1;1.392747244E1,,,,,
1.508084096E1;4.636537665E0;1.276685977E1;-6.939604175E-1;1.360043275E1,,,,,
1.509086046E1;4.740120213E0;1.205409471E1;-6.308900106E-1;1.296795902E1,,,,,
1.510087846E1;4.328606039E0;1.146804115E1;-4.568569922E-1;1.226627557E1,,,,,
1.511089646E1;3.641269640E0;1.106002244E1;-1.619117768E-1;1.164513445E1,,,,,
1.512091546E1;2.989974309E0;1.063336281E1;1.853637528E-1;1.104729427E1,,,,,
1.513093346E1;2.373034147E0;1.002686270E1;6.138899620E-1;1.032211837E1,,,,,
1.514095146E1;1.741331665E0;9.370902756E0;9.433897734E-1;9.577893228E0,,,,,
1.515097046E1;1.154600558E0;8.804252011E0;1.083383811E0;8.945483575E0,,,,,
1.516098846E1;7.225904319E-1;8.263892101E0;1.041302496E0;8.360523936E0,,,,,
1.517100646E1;3.907517342E-1;7.709598861E0;1.096894460E0;7.797036551E0,,,,,
1.518102546E1;1.829079223E-1;7.075628538E0;1.366962075E0;7.208783519E0,,,,,
1.519104346E1;8.116841644E-2;6.116571735E0;1.643875684E0;6.334142827E0,,,,,
1.520106146E1;-1.273776461E-1;4.530876431E0;1.634326011E0;4.818307567E0,,,,,
1.521108046E1;-6.320967297E-1;1.227505982E0;-2.462881147E0;2.823490881E0,,,,,
1.522109846E1;-1.312430504E0;-4.700024101E0;-9.807837700E0;1.095474238E1,,,,,
1.523111646E1;-1.711524168E0;-8.812318829E0;-6.020765691E0;1.080906553E1,,,,,
1.524113546E1;-2.430487280E0;-1.171588591E1;1.457038432E0;1.205372192E1,,,,,
1.525115346E1;-3.074589659E0;-1.533543402E1;5.862140086E0;1.670309326E1,,,,,
1.526117146E1;-2.877510425E0;-2.055152694E1;5.444451252E0;2.145430902E1,,,,,
1.527119046E1;-1.063852648E0;-2.680267527E1;8.472803322E-1;2.683715834E1,,,,,
1.528120846E1;2.822807968E0;-3.026321887E1;-4.550113771E0;3.073327507E1,,,,,
1.529122646E1;5.036116210E0;-2.533045396E1;-5.741168211E0;2.645666979E1,,,,,
1.530124546E1;2.123481853E0;-1.591720391E1;-2.506325959E0;1.625263749E1,,,,,
1.531126346E1;-6.557927173E-1;-1.118490259E1;-1.030692211E0;1.125141931E1,,,,,
1.532128146E1;-2.178655303E0;-9.431717307E0;-3.186392661E-1;9.685316787E0,,,,,
1.533130046E1;-3.054690122E0;-9.595712410E0;5.354249326E-1;1.008441908E1,,,,,
1.534131846E1;-3.402895030E0;-1.051255232E1;1.377221600E0;1.113508824E1,,,,,
1.535133646E1;-3.071549107E0;-1.081562520E1;2.158692616E0;1.144867312E1,,,,,
1.536135546E1;-2.524196804E0;-9.968066611E0;2.590995981E0;1.060411154E1,,,,,
1.537137346E1;-1.843594351E0;-8.625328381E0;2.361171169E0;9.130731575E0,,,,,
1.538139146E1;-1.112401495E0;-6.943823526E0;1.624231378E0;7.217496090E0,,,,,
1.539141046E1;-3.893427014E-1;-5.046414326E0;5.995313931E-1;5.096795383E0,,,,,
1.540142846E1;1.649924920E-1;-3.097881165E0;-5.786053046E-1;3.155768422E0,,,,,
1.541144646E1;7.131641355E-1;-1.301604238E0;-1.079496435E0;1.835235470E0,,,,,
1.542146546E1;1.156937398E0;4.172345048E-1;-3.844895124E-1;1.288573227E0,,,,,
1.543148346E1;1.405710989E0;2.416792808E0;4.142367104E-1;2.826393977E0,,,,,
1.544150146E1;1.615522535E0;4.287933392E0;9.158903912E-1;4.672808689E0,,,,,
1.545152046E1;1.755764786E0;5.951324742E0;1.150764858E0;6.310723883E0,,,,,
1.546153846E1;1.928912682E0;7.496798218E0;1.193518529E0;7.832443689E0,,,,,
1.547155646E1;2.201741718E0;8.902253099E0;9.423115468E-1;9.218770411E0,,,,,
1.548157546E1;2.412443211E0;1.016071132E1;6.651019963E-1;1.046433454E1,,,,,
1.549159346E1;2.607002733E0;1.125425291E1;4.553998661E-1;1.156123094E1,,,,,
1.550161146E1;2.750747759E0;1.208476803E1;6.623959780E-2;1.239405581E1,,,,,
1.551163046E1;2.855378421E0;1.263780704E1;-2.929022348E-1;1.295967378E1,,,,,
1.552164846E1;2.890601463E0;1.292836455E1;-6.327786613E-1;1.326267678E1,,,,,
1.553166646E1;2.890571643E0;1.310864239E1;-9.852207541E-1;1.345966455E1,,,,,
