"Time (s)","Linear Acceleration x (m/s^2)","Linear Acceleration y (m/s^2)","Linear Acceleration z (m/s^2)","Absolute acceleration (m/s^2)"
1.351533335E-2,-3.031810552E-2,6.900474608E-2,-1.163198304E-1,1.386042765E-1
2.357633330E-2,-7.443344727E-2,2.047402561E-2,-7.318375111E-2,1.063737995E-1
3.363633330E-2,-5.158983752E-2,4.857340515E-2,-8.963079929E-2,1.142565850E-1
4.369733331E-2,-4.589640364E-2,8.658323050E-2,-1.911279380E-2,9.984204804E-2
5.375833332E-2,-3.445661858E-2,8.291000962E-2,1.119893825E-1,1.435372776E-1
6.381933333E-2,6.014438711E-2,1.728185517E-1,1.985246658E-1,2.699919296E-1
7.387933333E-2,2.509252198E-1,1.761532187E-1,2.505929518E-1,3.959674859E-1
8.394033334E-2,1.856878348E-1,1.163256776E-1,1.389029467E-1,2.594333515E-1
9.400133335E-2,1.082981814E-1,4.942183614E-2,-6.050932646E-2,1.335379818E-1
1.040623334E-1,1.398449332E-2,2.279203731E-1,-2.279420078E-1,3.226465891E-1
1.141223334E-1,-1.302511141E-2,1.571749109E-1,-3.266166955E-1,3.627010779E-1
1.241833333E-1,-7.206408240E-2,1.582706791E-1,-4.051389545E-1,4.408859402E-1
1.342443333E-1,-6.914624870E-3,2.063733834E-1,-3.066841221E-1,3.697200781E-1
1.443053333E-1,-5.411568850E-2,4.877747297E-3,-2.686690342E-1,2.741082817E-1
1.543653333E-1,-8.019353941E-2,1.050943458E-1,-2.625241953E-1,2.939298869E-1
1.644263333E-1,-7.686164975E-3,4.098196507E-2,-3.580612671E-1,3.604808866E-1
1.744873333E-1,2.190732434E-3,9.808996618E-2,-3.207507688E-1,3.354213715E-1
1.845483333E-1,-1.616813600E-2,6.793587506E-2,-2.726650214E-1,2.814656385E-1
1.946083333E-1,-4.887219787E-2,6.792710423E-3,-1.835604715E-1,1.900765092E-1
2.046693334E-1,-9.292541295E-2,9.460502565E-3,-1.160415030E-1,1.489639684E-1
2.147303333E-1,-1.600831698E-1,-2.225450277E-2,-7.475899100E-2,1.780752394E-1
2.247903333E-1,-8.431261048E-2,-1.287439942E-2,-8.103188396E-2,1.176457932E-1
2.348513333E-1,3.131286308E-1,2.790542740E-1,-2.322689474E-2,4.200717985E-1
2.449123333E-1,7.118554556E-1,3.317227766E-1,4.762539607E-1,9.184748365E-1
2.549733333E-1,6.048494357E-1,2.686310273E-1,5.994717515E-1,8.929568016E-1
2.650333333E-1,5.687142277E-1,2.190127248E-1,4.410116225E-1,7.522590628E-1
2.750943333E-1,4.444944800E-1,1.601011500E-1,4.630936325E-1,6.615613603E-1
2.851553333E-1,2.850473776E-1,1.864715078E-1,4.305421829E-1,5.489901657E-1
2.952163334E-1,1.904445447E-1,1.777927780E-1,3.689978993E-1,4.517065930E-1
3.052763334E-1,1.235124904E-1,2.538592064E-1,3.192404330E-1,4.261622766E-1
3.153373333E-1,5.771669626E-2,2.743396640E-1,2.782508665E-1,3.949898897E-1
3.253983333E-1,-5.985502303E-3,2.793346480E-1,2.672405595E-1,3.866279716E-1
3.354583333E-1,-5.292022526E-2,2.822512391E-1,2.198395211E-1,3.616569193E-1
3.455193333E-1,-5.972272977E-2,2.847430301E-1,1.624882758E-1,3.332384092E-1
3.555803333E-1,-2.813665554E-2,3.171871832E-1,1.071151435E-1,3.359658235E-1
3.656413333E-1,-1.886604130E-2,3.001340711E-1,8.929809272E-2,3.137045386E-1
3.757013333E-1,-2.510662839E-2,3.153257221E-1,6.914390981E-2,3.237924244E-1
3.857623333E-1,-4.919087112E-2,3.384157920E-1,3.394016325E-2,3.436523312E-1
3.958233334E-1,-8.526351392E-2,3.495904058E-1,-4.800564051E-4,3.598382263E-1
4.058843333E-1,-1.262731071E-1,3.690411687E-1,-7.559865117E-3,3.901197679E-1
4.159443333E-1,-1.537184756E-1,3.485770833E-1,-4.113399267E-2,3.831805816E-1
4.260053333E-1,-1.635045218E-1,3.214231986E-1,-8.910513461E-2,3.714651077E-1
4.360663333E-1,-1.712567604E-1,2.849038285E-1,-1.110058808E-1,3.504588065E-1
4.461273333E-1,-1.750985272E-1,2.447422278E-1,-1.327516758E-1,3.289091968E-1
4.561873333E-1,-1.910308743E-1,2.181944069E-1,-1.132488728E-1,3.113308551E-1
4.662483333E-1,-1.956364702E-1,2.193392918E-1,-1.465879422E-1,3.284377844E-1
4.763093333E-1,-2.269085124E-1,2.268152493E-1,-1.536823690E-1,3.557399343E-1
4.863693333E-1,-2.876534817E-1,2.292962229E-1,-1.261343819E-1,3.888845145E-1
4.964303334E-1,-3.004549736E-1,2.169591826E-1,-1.000645709E-1,3.838715885E-1
5.064913333E-1,-3.607204346E-1,1.901982307E-1,-4.462185681E-2,4.102264119E-1
5.165523333E-1,-3.806765431E-1,1.644774985E-1,1.562259078E-2,4.149837868E-1
5.266123333E-1,-3.692671636E-1,1.305034214E-1,6.767333508E-2,3.974532191E-1
5.366733333E-1,-3.885928326E-1,1.174749479E-1,1.303239119E-1,4.263673005E-1
5.467343333E-1,-3.875899985E-1,1.087868625E-1,1.693511528E-1,4.367383672E-1
5.567953333E-1,-3.833131988E-1,9.388289452E-2,2.148161781E-1,4.493205945E-1
5.668553333E-1,-4.064016973E-1,6.695705116E-2,2.799453896E-1,4.980110515E-1
5.769163333E-1,-3.953575860E-1,7.131615043E-2,2.576698369E-1,4.772707397E-1
5.869773334E-1,-3.961263852E-1,8.692149192E-2,2.153126067E-1,4.591633450E-1
5.970383333E-1,-3.850170775E-1,8.496939898E-2,2.151202333E-1,4.491488211E-1
6.070983333E-1,-3.776256122E-1,7.908008337E-2,1.735816133E-1,4.230665894E-1
6.171593333E-1,-3.867069228E-1,1.044932520E-1,9.614869058E-2,4.119534616E-1
6.272202916E-1,-3.450611526E-1,1.043125731E-1,2.956001401E-2,3.616933872E-1
6.372802916E-1,-3.003268830E-1,1.108538532E-1,-2.751992047E-2,3.213131797E-1
6.473412917E-1,-2.611603323E-1,1.524509454E-1,-7.643597245E-2,3.119109934E-1
6.574022917E-1,-2.054201411E-1,1.685401440E-1,-1.012158877E-1,2.843375993E-1
6.674632917E-1,-1.622542410E-1,1.699472764E-1,-8.924312890E-2,2.513421006E-1
6.775232917E-1,-1.438406280E-1,1.662761021E-1,-9.147033334E-2,2.381274664E-1
6.875842917E-1,-1.299723481E-1,1.608949095E-1,-7.446604550E-2,2.198298776E-1
6.976452917E-1,-1.308653641E-1,1.404933894E-1,-6.654482245E-2,2.032051903E-1
7.077062916E-1,-1.205298257E-1,1.075408208E-1,-7.513321280E-2,1.781501240E-1
7.177662916E-1,-1.012527617E-1,6.031549126E-2,-7.635235727E-2,1.404270725E-1
7.278272916E-1,-7.942916214E-2,-2.822772592E-2,-4.340739012E-2,9.481559907E-2
7.378882917E-1,-5.756379157E-2,-8.893234938E-2,3.116332054E-2,1.104251122E-1
7.479482917E-1,-4.440960288E-3,-1.351355857E-1,5.315060556E-2,1.452801966E-1
7.580092917E-1,-7.649071701E-3,-1.532888514E-1,5.480595231E-2,1.629713860E-1
7.680702917E-1,-1.651692241E-3,-1.417172116E-1,6.693307757E-2,1.567371463E-1
7.781312917E-1,3.791013032E-2,-1.331609809E-1,9.037982762E-2,1.653406728E-1
7.881912917E-1,7.995610591E-2,-9.983857602E-2,4.307468355E-2,1.349672127E-1
7.982522917E-1,1.130038379E-1,-6.557330757E-2,-2.071317673E-2,1.322828853E-1
8.083132916E-1,1.426033571E-1,-4.740922451E-3,-3.465820134E-2,1.468311436E-1
8.183742916E-1,1.339007634E-1,1.729109377E-2,-7.440523446E-2,1.541575015E-1
8.284342916E-1,1.529557063E-1,3.456552297E-2,-1.685530078E-1,2.302180269E-1
8.384952917E-1,1.742705432E-1,4.624212027E-2,-1.939913195E-1,2.648418169E-1
8.485562917E-1,2.016779231E-1,1.720835567E-2,-2.234466684E-1,3.014938238E-1
8.586172917E-1,2.676609560E-1,1.801614851E-2,-2.744934458E-1,3.838145656E-1
8.686772917E-1,3.327277668E-1,5.085381925E-2,-3.140153611E-1,4.603254552E-1
8.787382917E-1,3.840604730E-1,8.410518050E-2,-3.138761973E-1,5.030848791E-1
8.887992917E-1,4.586003396E-1,1.065517643E-1,-3.324604028E-1,5.763657427E-1
8.988592917E-1,4.625608049E-1,1.684989211E-1,-3.751708049E-1,6.189567978E-1
9.089202916E-1,4.563129088E-1,2.685415649E-1,-3.958500677E-1,6.610849560E-1
9.189812916E-1,4.896493471E-1,3.203490651E-1,-4.469693506E-1,7.363162411E-1
9.290422917E-1,4.853557366E-1,3.522526431E-1,-4.940359282E-1,7.769965341E-1
9.391022917E-1,4.553625901E-1,4.100947621E-1,-4.895037514E-1,7.843129000E-1
9.491632917E-1,4.454293402E-1,4.586988652E-1,-4.924425620E-1,8.070387988E-1
9.592242917E-1,4.199090213E-1,5.041507342E-1,-4.902843547E-1,8.190667234E-1
9.692852917E-1,3.817709957E-1,5.640525350E-1,-4.861088580E-1,8.367832319E-1
9.793452917E-1,3.581536531E-1,6.318474922E-1,-5.085276675E-1,8.866260098E-1
9.894062917E-1,3.728734338E-1,6.628991309E-1,-5.684587044E-1,9.495341773E-1
9.994672916E-1,3.533039725E-1,6.414345869E-1,-5.735861278E-1,9.301951797E-1
1.009527292E0,2.914076865E-1,6.945325676E-1,-6.131173986E-1,9.711883811E-1
1.019588292E0,1.793971078E-1,7.423829645E-1,-6.782752615E-1,1.021456371E0
1.029649292E0,5.844277427E-2,7.497393465E-1,-6.336382020E-1,9.833727760E-1
1.039710292E0,5.235743076E-2,9.774012727E-1,-8.075571996E-1,1.268937815E0
1.049770292E0,1.329558899E-1,1.137631354E0,-9.953446233E-1,1.517429829E0
1.059831292E0,2.208652689E-1,1.110095061E0,-9.439891130E-1,1.473841225E0
1.069892292E0,3.378793100E-1,1.142896187E0,-9.248073220E-1,1.508523352E0
1.079953292E0,4.027364798E-1,1.211109220E0,-9.893611676E-1,1.614873907E0
1.090013292E0,5.401074560E-1,1.113998370E0,-1.027443498E0,1.608834539E0
1.100074292E0,5.811594415E-1,9.090186703E-1,-8.647698659E-1,1.382710440E0
1.110135292E0,4.190364705E-1,9.361374718E-1,-7.490476209E-1,1.270046168E0
1.120195292E0,3.886354442E-1,9.410096642E-1,-9.117288548E-1,1.366669748E0
1.130256292E0,4.555622725E-1,8.533531773E-1,-1.159103499E0,1.509724992E0
1.140317292E0,2.963193476E-1,9.678018987E-1,-1.197108647E0,1.567646256E0
1.150378292E0,1.483635955E-1,1.027388827E0,-1.254281552E0,1.628116018E0
1.160438292E0,1.519096394E-1,1.022592941E0,-1.275528579E0,1.641872717E0
1.170499292E0,2.013379075E-1,9.905656940E-1,-1.246532237E0,1.604867585E0
1.180560292E0,3.226225356E-1,9.168513080E-1,-1.217155241E0,1.557616288E0
1.190621292E0,3.457319744E-1,8.591319805E-1,-1.176733439E0,1.497444471E0
1.200681292E0,5.335821095E-1,8.726472348E-1,-1.282133009E0,1.640148810E0
1.210742292E0,6.349539717E-1,8.660009971E-1,-1.246126440E0,1.644978838E0
1.220803292E0,5.250495601E-1,8.116253999E-1,-1.049457096E0,1.426805182E0
1.230863292E0,3.387397277E-1,1.024936797E0,-1.311488956E0,1.698600401E0
1.240924292E0,3.380002011E-1,1.109552439E0,-1.342958086E0,1.774510403E0
1.250985292E0,1.653126271E-1,1.059171660E0,-1.259756885E0,1.654134299E0
1.261046292E0,1.610083455E-1,1.089108235E0,-1.421961570E0,1.798347892E0
1.271106292E0,1.423745848E-1,1.093664970E0,-1.485277560E0,1.849979194E0
1.281167292E0,6.231406957E-2,1.185186759E0,-1.642772899E0,2.026636004E0
1.291228292E0,-3.881074771E-2,1.306311246E0,-1.627725089E0,2.087449236E0
1.301289292E0,-1.770186067E-2,1.387330266E0,-1.584958554E0,2.106440657E0
1.311349292E0,-1.636100641E-1,1.482203094E0,-1.541751723E0,2.144922526E0
1.321410292E0,-1.782533193E-1,1.599642959E0,-1.493102304E0,2.195446727E0
1.331471292E0,-7.618410364E-3,1.687680392E0,-1.393429497E0,2.188599760E0
1.341531292E0,1.489163035E-1,1.689974547E0,-1.294701599E0,2.134113930E0
1.351592292E0,1.823058052E-1,1.662196180E0,-1.163670759E0,2.037218982E0
1.361653292E0,-2.334197525E-2,1.731134852E0,-1.065701830E0,2.033001012E0
1.371714292E0,-1.868739425E-1,1.691614399E0,-9.165452063E-1,1.933012224E0
1.381774292E0,-2.599856266E-1,1.692877105E0,-7.444867927E-1,1.867534739E0
1.391835292E0,-2.710104056E-1,1.837839814E0,-6.924196762E-1,1.982560675E0
1.401896292E0,-4.242065786E-1,1.937952624E0,-4.596116155E-1,2.036382683E0
1.411957292E0,-4.712760799E-1,1.973254311E0,-1.822267216E-1,2.036919316E0
1.422017292E0,-4.216915450E-1,1.965701171E0,-4.261684656E-2,2.010875691E0
1.432078292E0,-3.926621658E-1,1.967461182E0,9.225035191E-2,2.008381739E0
1.442139292E0,-2.959797706E-1,1.928736827E0,2.422191542E-1,1.966290897E0
1.452199292E0,-4.462888809E-1,2.042210526E0,5.040902156E-1,2.150326613E0
1.462260292E0,-4.955559120E-1,2.275923735E0,6.699230987E-1,2.423675199E0
1.472321292E0,-5.275305337E-1,2.293438193E0,9.506210250E-1,2.538075558E0
1.482382292E0,-6.745938545E-1,2.953111122E0,1.012781605E0,3.194005127E0
1.492442292E0,-6.905911057E-1,3.284803786E0,9.860984212E-1,3.498462817E0
1.502503292E0,-7.671035305E-1,3.326786502E0,1.320327607E0,3.660494672E0
1.512564292E0,-6.610230517E-1,3.219990324E0,1.566262082E0,3.641217663E0
1.522625292E0,-5.033458650E-1,2.664328251E0,2.024845757E0,3.384080736E0
1.532685292E0,-1.963280131E-1,1.972463768E0,2.588684576E0,3.260436449E0
1.542746292E0,1.334622587E-1,1.372723922E0,2.928739343E0,3.237236055E0
1.552807292E0,1.702482618E-1,1.700804175E0,3.005823187E0,3.457845043E0
1.562867292E0,3.344382235E-1,1.176947447E0,3.154254171E0,3.383248970E0
1.572928292E0,3.845950547E-1,9.213899168E-1,3.600730017E0,3.736593287E0
1.582989292E0,4.781245216E-1,8.831859639E-1,3.686225665E0,3.820586363E0
1.593050292E0,4.839028497E-1,7.683238444E-1,3.735453374E0,3.844228844E0
1.603110292E0,3.719422647E-1,7.977426481E-1,3.623299685E0,3.728677377E0
1.613171292E0,1.512415950E-1,8.884493351E-1,3.272452712E0,3.394283871E0
1.623232708E0,-9.557372656E-2,8.412052944E-1,2.791486480E0,2.917046015E0
1.633293708E0,-4.052925536E-1,7.186002919E-1,2.350698221E0,2.491270873E0
1.643353708E0,-7.114240041E-1,6.673038384E-1,1.917209042E0,2.151071602E0
1.653414708E0,-9.825536929E-1,6.248805347E-1,1.498350180E0,1.897614477E0
1.663475708E0,-1.173010663E0,5.618095431E-1,1.050648174E0,1.671958601E0
1.673535708E0,-1.326635437E0,4.155218554E-1,6.910204375E-1,1.552459094E0
1.683596708E0,-1.351738995E0,1.689479873E-1,3.797544372E-1,1.414197711E0
1.693657708E0,-1.272810501E0,-1.841668278E-1,1.090137345E-1,1.290677336E0
1.703718708E0,-1.166594513E0,-5.233410037E-1,-1.319593781E-1,1.285395597E0
1.713778708E0,-1.032565075E0,-8.897789919E-1,-3.495588309E-1,1.407156233E0
1.723839708E0,-8.691204867E-1,-1.220482014E0,-5.491617233E-1,1.595783621E0
1.733900708E0,-6.861915144E-1,-1.554117707E0,-8.362717062E-1,1.893539281E0
1.743961708E0,-5.037874760E-1,-1.839676716E0,-1.082030765E0,2.192943870E0
1.754021708E0,-3.642531762E-1,-2.049990831E0,-1.400827394E0,2.509474082E0
1.764082708E0,-2.442183173E-1,-2.144123109E0,-1.757287694E0,2.782977997E0
1.774143708E0,-1.701283939E-1,-2.201073235E0,-2.101887501E0,3.048212283E0
1.784203708E0,-9.153801486E-2,-2.272771209E0,-2.456576094E0,3.347929850E0
1.794264708E0,-5.070062220E-2,-2.282656219E0,-2.770919484E0,3.590415680E0
1.804325708E0,-1.099726047E-2,-2.281753994E0,-3.077644536E0,3.831242373E0
1.814386708E0,4.232550904E-2,-2.253736768E0,-3.406028261E0,4.084378702E0
1.824446708E0,7.899109606E-2,-2.165337392E0,-3.663959468E0,4.256703490E0
1.834507708E0,8.161134303E-2,-2.046628974E0,-3.805511203E0,4.321720270E0
1.844568708E0,1.218295155E-1,-1.941556263E0,-3.964543190E0,4.416116604E0
1.854628708E0,1.707094610E-1,-1.855954195E0,-4.075052058E0,4.481044183E0
1.864689708E0,1.905711735E-1,-1.735868173E0,-4.111583707E0,4.467065733E0
1.874750708E0,2.199628973E-1,-1.646243514E0,-4.077586241E0,4.402863947E0
1.884811708E0,2.431316122E-1,-1.523390881E0,-4.015651948E0,4.301777926E0
1.894871708E0,2.230720080E-1,-1.385314146E0,-3.942562337E0,4.184812324E0
1.904932708E0,1.691478159E-1,-1.166654009E0,-3.841948712E0,4.018738915E0
1.914993708E0,8.397654176E-2,-9.148746568E-1,-3.741641482E0,3.852781940E0
1.925054708E0,-2.281408131E-2,-6.715205580E-1,-3.545834017E0,3.608933253E0
1.935114708E0,-1.738116647E-1,-2.704755315E-1,-3.355978433E0,3.371343761E0
1.945175708E0,-2.632945660E-1,1.560095608E-1,-3.136473373E0,3.151369263E0
1.955236708E0,-3.295643866E-1,4.907269889E-1,-2.706313013E0,2.770118371E0
1.965296708E0,-3.471616186E-1,7.115698922E-1,-2.215570822E0,2.352787064E0
1.975357708E0,-2.674422884E-1,8.849863216E-1,-1.798355613E0,2.022080383E0
1.985418708E0,-2.650732890E-1,9.959562421E-1,-1.342818922E0,1.692736052E0
1.995479708E0,-2.797913155E-1,1.100646545E0,-8.778068179E-1,1.435357380E0
2.005539708E0,-2.591099695E-1,1.191757275E0,-3.631828433E-1,1.272527075E0
2.015600708E0,-2.554929185E-1,1.419332662E0,5.959949970E-2,1.443375882E0
2.025661708E0,-3.284804955E-1,1.842339831E0,3.998875701E-1,1.913641961E0
2.035722708E0,-5.532878110E-1,2.373093642E0,7.068652225E-1,2.537195160E0
2.045782708E0,-9.358572440E-1,2.920483951E0,1.058537822E0,3.244311577E0
2.055843708E0,-1.254937317E0,3.238569267E0,1.602389104E0,3.825029334E0
2.065904708E0,-1.393846550E0,3.370175181E0,2.257414666E0,4.289150257E0
2.075964708E0,-1.353857296E0,3.339404793E0,3.034877416E0,4.711160672E0
2.086025708E0,-1.114955121E0,3.253393713E0,3.601038750E0,4.979475439E0
2.096086708E0,-7.753274931E-1,2.969176055E0,4.248881008E0,5.241195378E0
2.106147708E0,-4.297259116E-1,2.729674394E0,4.877847285E0,5.606173453E0
2.116207708E0,-8.357820019E-2,2.539152228E0,5.114858324E0,5.711046754E0
2.126268708E0,2.390590265E-2,3.196370789E0,5.157064111E0,6.067344391E0
2.136329708E0,2.484250966E-1,3.151551003E0,5.266160876E0,6.142185208E0
2.146389708E0,4.673628308E-1,3.017326999E0,5.766225284E0,6.524725608E0
2.156450708E0,7.058723652E-1,2.727136995E0,5.680714433E0,6.340823957E0
2.166511708E0,7.264868702E-1,2.483934339E0,5.472890940E0,6.053944847E0
2.176572708E0,7.272559252E-1,2.334649953E0,5.028956879E0,5.591949470E0
2.186632708E0,7.379865892E-1,1.989880284E0,4.486953317E0,4.963567046E0
2.196693708E0,7.313131620E-1,1.415158335E0,3.928109189E0,4.238812789E0
2.206754708E0,7.110399882E-1,7.941486570E-1,3.360980726E0,3.525966732E0
2.216815708E0,6.557744448E-1,2.320794976E-1,2.814678876E0,2.899365136E0
2.226875708E0,5.725675428E-1,-2.074065864E-1,2.299109407E0,2.378393397E0
2.236936708E0,5.940038739E-1,-4.634985521E-1,1.844407114E0,1.992362696E0
2.246997708E0,7.173342235E-1,-6.745982400E-1,1.446563730E0,1.749913655E0
2.257057708E0,9.135075778E-1,-9.415908775E-1,1.070055667E0,1.692958536E0
2.267118708E0,1.134559665E0,-1.214522824E0,6.890294605E-1,1.799181181E0
2.277179708E0,1.351779195E0,-1.467091258E0,2.889085865E-1,2.015721192E0
2.287240708E0,1.510361969E0,-1.663625239E0,-1.724723965E-1,2.253572484E0
2.297300708E0,1.651790328E0,-1.730830505E0,-6.733168226E-1,2.485465966E0
2.307361708E0,1.719906152E0,-1.758566480E0,-1.051996542E0,2.675318665E0
2.317422708E0,1.577922453E0,-1.686008088E0,-1.357936898E0,2.678890659E0
2.327482708E0,1.413463373E0,-1.573207405E0,-1.686452184E0,2.704991907E0
2.337543708E0,1.245256959E0,-1.559320560E0,-2.053777195E0,2.863589752E0
2.347604708E0,1.071883653E0,-1.520573108E0,-2.398412670E0,3.035368261E0
2.357665708E0,9.347698081E-1,-1.432434518E0,-2.783736581E0,3.267239292E0
2.367725708E0,8.848744936E-1,-1.407707813E0,-3.106352026E0,3.523360196E0
2.377786708E0,8.761451854E-1,-1.378518512E0,-3.419103220E0,3.789222941E0
2.387847708E0,8.423817542E-1,-1.374230164E0,-3.654777585E0,3.994435475E0
2.397908708E0,7.877677368E-1,-1.398770636E0,-3.867411582E0,4.187363090E0
2.407968708E0,6.644346097E-1,-1.379229241E0,-3.991159131E0,4.274704418E0
2.418029708E0,6.758613847E-1,-1.299769381E0,-4.077318438E0,4.332518287E0
2.428090708E0,6.664271946E-1,-1.300880937E0,-4.159079470E0,4.408441727E0
2.438150708E0,6.312665713E-1,-1.283682229E0,-4.149629200E0,4.389277850E0
2.448211708E0,5.693527436E-1,-1.278640175E0,-4.064380304E0,4.298635888E0
2.458272708E0,5.263616753E-1,-1.247723315E0,-4.012883291E0,4.235221646E0
2.468333708E0,4.609509568E-1,-1.297281391E0,-3.951813802E0,4.184763687E0
2.478393708E0,3.109018649E-1,-1.263845842E0,-3.816215701E0,4.032055129E0
2.488454708E0,1.649116543E-1,-1.191917489E0,-3.663948358E0,3.856472575E0
2.498515708E0,9.330080420E-2,-1.040112661E0,-3.492617338E0,3.645396447E0
2.508575708E0,5.923112512E-2,-7.818791521E-1,-3.312744121E0,3.404279211E0
2.518636708E0,9.713723548E-3,-5.729961437E-1,-3.021079742E0,3.074953942E0
2.528697708E0,-7.987018839E-2,-3.886819661E-1,-2.628262040E0,2.658047078E0
2.538758708E0,-1.477231426E-1,-2.340997106E-1,-2.344202549E0,2.360489440E0
2.548818708E0,-1.185215995E-1,-2.069130814E-1,-2.063140926E0,2.076875267E0
2.558879708E0,-1.322666493E-1,-2.379524410E-1,-1.728144586E0,1.749456927E0
2.568940708E0,-2.405807644E-1,-1.677589560E-1,-1.341859394E0,1.373538789E0
2.579001708E0,-3.411172056E-1,-1.928060889E-2,-1.024933289E0,1.080379996E0
2.589061708E0,-4.237044489E-1,1.744563568E-1,-6.821455336E-1,8.217560523E-1
2.599122708E0,-4.041310407E-1,3.269178271E-1,-3.557428461E-1,6.298810494E-1
2.609183708E0,-3.829832331E-1,4.573417264E-1,-1.689436018E-2,5.967604469E-1
2.619243708E0,-3.761497749E-1,6.928582174E-1,3.428970981E-1,8.597206421E-1
2.629304792E0,-3.792881218E-1,1.096712539E0,5.994378376E-1,1.306125412E0
2.639365792E0,-3.597158830E-1,1.589728128E0,8.456371915E-1,1.836228008E0
2.649426792E0,-2.582083654E-1,2.004168833E0,1.146240794E0,2.323194402E0
2.659486792E0,-1.095636651E-1,2.286519182E0,1.500490846E0,2.737087311E0
2.669547792E0,1.067471344E-2,2.403375787E0,2.003794611E0,3.129140771E0
2.679608792E0,1.644074781E-1,2.423458634E0,2.551631355E0,3.522925509E0
2.689668792E0,2.529502933E-1,2.437367698E0,3.030979663E0,3.897638113E0
2.699729792E0,-1.825880796E-2,2.587839653E0,3.523687688E0,4.371912897E0
2.709790792E0,-4.321511905E-1,3.074431199E0,3.711545863E0,4.838848473E0
2.719851792E0,-8.366880280E-1,3.445642270E0,3.872156013E0,5.250341865E0
2.729911792E0,-1.075984305E0,3.379164398E0,4.164403360E0,5.469803433E0
2.739972792E0,-1.070299204E0,2.847193781E0,4.303117442E0,5.269617873E0
2.750033792E0,-1.091454284E0,2.482287763E0,4.382365340E0,5.153460096E0
2.760093792E0,-8.576453260E-1,1.938903381E0,4.365521266E0,4.853110111E0
2.770154792E0,-5.599415039E-1,1.171008138E0,4.205539691E0,4.401290566E0
2.780215792E0,-5.483657345E-1,6.639946067E-1,3.945367246E0,4.038256619E0
2.790276792E0,-5.450044991E-1,3.848067239E-1,3.596645152E0,3.657999791E0
2.800336792E0,-4.507023592E-1,1.652212644E-1,3.348764724E0,3.382995101E0
2.810397792E0,-3.253389327E-1,-5.765354633E-4,3.168565816E0,3.185224495E0
2.820458792E0,-2.168054008E-1,-1.286264652E-1,3.004190059E0,3.014748292E0
2.830519792E0,-1.319105539E-1,-1.755550486E-1,2.820687475E0,2.829222120E0
2.840579792E0,-5.762284845E-2,-2.739595950E-1,2.538654045E0,2.554043581E0
2.850640792E0,-8.669666648E-3,-4.447766447E-1,2.283741755E0,2.326666678E0
2.860701792E0,6.376433437E-2,-5.679540896E-1,2.046613771E0,2.124915449E0
2.870761792E0,1.768259409E-1,-6.773595876E-1,1.663515311E0,1.804817613E0
2.880822792E0,2.283536518E-1,-8.264220715E-1,1.281153016E0,1.541580968E0
2.890883792E0,2.184853059E-1,-1.013247043E0,8.081004059E-1,1.314317947E0
2.900943792E0,2.151142399E-1,-1.265108841E0,2.156435591E-1,1.301259644E0
2.911004792E0,1.052425727E-1,-1.478932747E0,-3.226628083E-1,1.517375812E0
2.921065792E0,-1.230445670E-1,-1.636457906E0,-9.034252238E-1,1.873315664E0
2.931126792E0,-2.940161294E-1,-1.732401359E0,-1.484576479E0,2.300353728E0
2.941186792E0,-4.322602411E-1,-1.794924467E0,-1.979337462E0,2.706728569E0
2.951247792E0,-5.522046143E-1,-1.810441223E0,-2.422386839E0,3.074180437E0
2.961308792E0,-6.193560854E-1,-1.806458099E0,-2.728288604E0,3.330232955E0
2.971369792E0,-6.710119964E-1,-1.767365370E0,-3.021960332E0,3.564559117E0
2.981429792E0,-6.459306572E-1,-1.788030599E0,-3.236352003E0,3.753432312E0
2.991490792E0,-6.212947297E-1,-1.811976702E0,-3.369917611E0,3.876288355E0
3.001551792E0,-5.198233187E-1,-1.863248304E0,-3.444041594E0,3.950105445E0
3.011611792E0,-4.261045482E-1,-1.863180769E0,-3.509112334E0,3.995857484E0
3.021672792E0,-3.563671826E-1,-1.884302666E0,-3.495645611E0,3.987120809E0
3.031733792E0,-3.160296903E-1,-1.863465528E0,-3.441281708E0,3.926168404E0
3.041794792E0,-3.348282328E-1,-1.751459774E0,-3.390717911E0,3.831016737E0
3.051854792E0,-3.539840037E-1,-1.605669392E0,-3.340155283E0,3.722917698E0
3.061915792E0,-3.291900551E-1,-1.488407575E0,-3.219051846E0,3.561743672E0
3.071976792E0,-3.021573539E-1,-1.390376081E0,-3.031029364E0,3.348370308E0
3.082036792E0,-3.161905253E-1,-1.221437157E0,-2.940332032E0,3.199599606E0
3.092097792E0,-3.496389377E-1,-1.066817479E0,-2.778944787E0,2.997145484E0
3.102158792E0,-4.448346783E-1,-8.202579367E-1,-2.622835239E0,2.783876015E0
3.112219792E0,-5.497094612E-1,-5.214921141E-1,-2.489943815E0,2.602682216E0
3.122279792E0,-6.557995878E-1,-2.192857897E-1,-2.275010692E0,2.377779007E0
3.132340792E0,-6.621100491E-1,5.125727713E-2,-2.040072491E0,2.145440000E0
3.142401792E0,-6.183718528E-1,1.415453035E-1,-1.792443493E0,1.901386993E0
3.152461792E0,-5.523946488E-1,1.779781348E-1,-1.390123481E0,1.506406106E0
3.162522792E0,-4.226133585E-1,1.363886440E-1,-1.000113028E0,1.094271439E0
3.172583792E0,-3.173580681E-1,2.183350325E-2,-5.305628997E-1,6.186192979E-1
3.182644792E0,-2.128738792E-1,-5.566607773E-2,-1.063959360E-1,2.444055970E-1
3.192704792E0,-8.986527264E-2,-1.129565120E-2,2.160511100E-1,2.342678832E-1
3.202765792E0,-8.642564803E-2,1.432287169E-1,4.982313055E-1,5.255647360E-1
3.212826792E0,-2.423496933E-1,4.135156757E-1,8.014521217E-1,9.338383647E-1
3.222886792E0,-4.646027988E-1,8.049394011E-1,1.039737269E0,1.394574053E0
3.232947792E0,-6.459784582E-1,1.216240152E0,1.284982358E0,1.883536019E0
3.243008792E0,-7.587863047E-1,1.499714921E0,1.583858693E0,2.309439295E0
3.253069792E0,-7.839160296E-1,1.629062347E0,1.962026196E0,2.667942141E0
3.263129792E0,-6.274163260E-1,1.671911328E0,2.465336977E0,3.044146046E0
3.273190792E0,-2.050766172E-1,1.589030555E0,2.926291113E0,3.336203562E0
3.283251792E0,2.918817495E-1,1.579147591E0,3.259261394E0,3.633412570E0
3.293311792E0,5.067373963E-1,1.726084027E0,3.574545016E0,4.001689759E0
3.303372792E0,6.316124341E-1,1.973416572E0,3.823558635E0,4.348897316E0
3.313433792E0,9.120400728E-1,1.690644053E0,3.933031375E0,4.377080101E0
3.323494792E0,9.264236386E-1,1.573548297E0,3.950108169E0,4.351743277E0
3.333554792E0,6.948907095E-1,1.792829994E0,3.869564527E0,4.320953843E0
3.343615792E0,6.637311897E-1,1.662052923E0,3.650215588E0,4.065345354E0
3.353676792E0,7.319334054E-1,1.469836818E0,3.290864425E0,3.677762287E0
3.363736792E0,7.005383889E-1,1.236049933E0,3.017061535E0,3.334851388E0
3.373797792E0,6.536986832E-1,8.497319967E-1,2.876195678E0,3.069506151E0
3.383858792E0,5.738629934E-1,3.862237966E-1,2.739924563E0,2.825893517E0
3.393919792E0,4.598602684E-1,8.278487921E-2,2.589110253E0,2.630934569E0
3.403979792E0,3.648019373E-1,-1.420253599E-1,2.471637352E0,2.502447373E0
3.414040792E0,4.117224808E-1,-3.374720514E-1,2.425847222E0,2.483573540E0
3.424101792E0,5.361088376E-1,-4.083701259E-1,2.327228667E0,2.422843807E0
3.434161792E0,6.569968052E-1,-3.618724823E-1,2.125187486E0,2.253667754E0
3.444222792E0,7.277729653E-1,-3.369270909E-1,1.853609462E0,2.019663682E0
3.454283792E0,7.877301684E-1,-3.270300937E-1,1.467578623E0,1.697425850E0
3.464344792E0,8.559655671E-1,-4.101435864E-1,1.079103649E0,1.437135866E0
3.474404792E0,8.585412656E-1,-4.816234589E-1,6.551419222E-1,1.182482642E0
3.484465792E0,8.973775949E-1,-5.767073715E-1,1.892942512E-1,1.083379090E0
3.494526792E0,9.272961894E-1,-7.028563714E-1,-2.694958305E-1,1.194367324E0
3.504586792E0,8.913996939E-1,-8.173097706E-1,-7.669728452E-1,1.432074028E0
3.514647792E0,8.351111801E-1,-8.519837594E-1,-1.291083342E0,1.757891694E0
3.524708792E0,6.744086440E-1,-8.686185032E-1,-1.787115510E0,2.098358160E0
3.534769792E0,5.599480820E-1,-8.869191188E-1,-2.254712668E0,2.486744175E0
3.544829792E0,4.727976716E-1,-8.846080068E-1,-2.684733864E0,2.865984104E0
3.554890792E0,3.615051310E-1,-8.840259165E-1,-3.023647839E0,3.170904293E0
3.564951792E0,2.876689768E-1,-9.011702451E-1,-3.270934190E0,3.404977493E0
3.575012792E0,2.546795708E-1,-8.832926756E-1,-3.545297243E0,3.662540126E0
3.585072792E0,2.326098400E-1,-8.379364085E-1,-3.825537917E0,3.923134603E0
3.595133792E0,2.150114751E-1,-8.389590865E-1,-4.003638259E0,4.096242374E0
3.605194792E0,1.812803498E-1,-9.088140178E-1,-4.125280225E0,4.228089689E0
3.615254792E0,1.067011607E-1,-9.949592918E-1,-4.230511980E0,4.347247490E0
3.625319167E0,5.139117837E-2,-1.040050680E0,-4.313524901E0,4.437436595E0
3.635380167E0,1.148437008E-2,-1.125938677E0,-4.369098008E0,4.511860724E0
3.645440167E0,-1.900929809E-2,-1.253479314E0,-4.357069116E0,4.533830943E0
3.655501167E0,-3.751178876E-2,-1.351089224E0,-4.277031258E0,4.485515089E0
3.665562167E0,-3.344198048E-2,-1.336707412E0,-4.217025962E0,4.423936373E0
3.675623167E0,-9.714374050E-2,-1.228234545E0,-4.086478102E0,4.268172944E0
3.685683167E0,-1.178047308E-1,-9.763920432E-1,-3.962477953E0,4.082701423E0
3.695744167E0,-1.692638831E-1,-6.615007693E-1,-3.759990045E0,3.821486447E0
3.705805167E0,-2.772299427E-1,-2.785601842E-1,-3.559020073E0,3.580653027E0
3.715865167E0,-3.902755881E-1,4.480312049E-2,-3.239918219E0,3.263647105E0
3.725926167E0,-4.839035441E-1,3.591260451E-1,-2.880775217E0,2.943127590E0
3.735987167E0,-6.168661948E-1,5.964779770E-1,-2.332988175E0,2.485788346E0
3.746048167E0,-5.875950332E-1,8.118057865E-1,-1.712058896E0,1.983794904E0
3.756108167E0,-3.346868764E-1,8.733915854E-1,-1.106703676E0,1.449006968E0
3.766169167E0,-1.146602444E-1,8.756895411E-1,-4.540947676E-1,9.930665647E-1
3.776230167E0,8.219372571E-2,9.430675918E-1,1.788452768E-1,9.633887711E-1
3.786290167E0,2.858553167E-1,1.043602864E0,6.926155579E-1,1.284732077E0
3.796351167E0,3.682707980E-1,1.257700419E0,1.162025937E0,1.751495933E0
3.806412167E0,4.686755307E-1,1.517704464E0,1.512184108E0,2.193122060E0
3.816473167E0,5.013084027E-1,1.722241822E0,1.998652570E0,2.685523990E0
3.826533167E0,6.959196733E-1,1.834810079E0,2.459084550E0,3.146097430E0
3.836594167E0,8.865701862E-1,1.918815272E0,2.996195161E0,3.666748449E0
3.846655167E0,1.092790080E0,1.932717612E0,3.478812062E0,4.126950556E0
3.856715167E0,1.220053852E0,1.878847214E0,3.867277681E0,4.469276778E0
3.866776167E0,1.026676782E0,2.020964960E0,3.977386014E0,4.577986904E0
3.876837167E0,3.766136053E-1,2.570871034E0,3.932068924E0,4.713001347E0
3.886898167E0,-5.107732907E-1,3.380463649E0,3.887326614E0,5.176845762E0
3.896958167E0,-8.090577413E-1,3.237978698E0,4.074189008E0,5.266696930E0
3.907019167E0,-9.277654284E-1,2.862644171E0,4.090574661E0,5.078216360E0
3.917080167E0,-1.365876686E0,2.915667892E0,4.179968063E0,5.276255432E0
3.927140167E0,-1.444326147E0,2.362349968E0,4.217824107E0,5.045474763E0
3.937201167E0,-1.322133519E0,1.559402713E0,3.988113316E0,4.481609274E0
3.947262167E0,-1.301877303E0,9.860159755E-1,3.743972767E0,4.084659606E0
3.957323167E0,-1.027095443E0,3.424778527E-1,3.652291349E0,3.809389482E0
3.967383167E0,-5.701412407E-1,-4.046355093E-1,3.535871531E0,3.604327734E0
3.977444167E0,-2.420903328E-1,-7.630014163E-1,3.411342210E0,3.504002649E0
3.987505167E0,-8.612378553E-2,-8.464277351E-1,3.346842159E0,3.453289686E0
3.997565167E0,-2.919076234E-3,-9.372051734E-1,3.230501279E0,3.363703401E0
4.007626167E0,4.582579851E-2,-9.954375941E-1,3.042481720E0,3.201513865E0
4.017687167E0,1.082366395E-1,-9.331179696E-1,2.818905829E0,2.971305165E0
4.027748167E0,2.471696994E-1,-9.141004854E-1,2.481570017E0,2.656099077E0
4.037808167E0,4.496780732E-1,-9.942488551E-1,2.008715628E0,2.285974547E0
4.047869167E0,5.967603976E-1,-1.137147204E0,1.483339208E0,1.962019863E0
4.057930167E0,6.959046167E-1,-1.271451901E0,7.702958179E-1,1.641410618E0
4.067990167E0,6.594226688E-1,-1.375315992E0,1.444671571E-2,1.525300312E0
4.078051167E0,5.470913704E-1,-1.557688894E0,-6.303058738E-1,1.767198108E0
4.088112167E0,4.385596292E-1,-1.699580938E0,-1.323110881E0,2.198074684E0
4.098172167E0,2.068695197E-1,-1.759827724E0,-1.936759207E0,2.625038065E0
4.108233167E0,2.414022982E-2,-1.791938294E0,-2.426283424E0,3.016368156E0
4.118294167E0,-1.180982611E-1,-1.794215199E0,-2.808118300E0,3.334469039E0
4.128355167E0,-2.786035998E-1,-1.787347352E0,-3.096960229E0,3.586557288E0
4.138415167E0,-3.301405200E-1,-1.716873201E0,-3.358830705E0,3.786606668E0
4.148476167E0,-3.372078669E-1,-1.674465392E0,-3.527074980E0,3.918903088E0
4.158537167E0,-2.458195773E-1,-1.688988999E0,-3.658108159E0,4.036690031E0
4.168597167E0,-1.109119965E-1,-1.725362189E0,-3.699334538E0,4.083411830E0
4.178658167E0,2.616146609E-2,-1.746169505E0,-3.651343516E0,4.047480924E0
4.188719167E0,1.713787114E-1,-1.728976353E0,-3.620619906E0,4.015920616E0
4.198780167E0,2.834126423E-1,-1.701663131E0,-3.508405990E0,3.909589841E0
4.208840167E0,3.392849806E-1,-1.638679848E0,-3.401034738E0,3.790438396E0
4.218901167E0,3.550036119E-1,-1.527969251E0,-3.320010456E0,3.671945945E0
4.228962167E0,2.769820207E-1,-1.439265236E0,-3.205410292E0,3.524607580E0
4.239022167E0,1.173268671E-1,-1.201305486E0,-3.045292477E0,3.275775745E0
4.249083167E0,-1.987103149E-2,-9.781523475E-1,-2.939869518E0,3.098388235E0
4.259144167E0,-2.198186173E-1,-8.048288888E-1,-2.767572538E0,2.890592935E0
4.269205167E0,-4.004611820E-1,-5.715700078E-1,-2.630544208E0,2.721548137E0
4.279265167E0,-5.196737762E-1,-3.391332453E-1,-2.524954019E0,2.600089419E0
4.289326167E0,-5.853114031E-1,-1.013456959E-1,-2.359165574E0,2.432801388E0
4.299387167E0,-6.004457149E-1,4.936336398E-2,-2.103655114E0,2.188226825E0
4.309447167E0,-6.012323115E-1,1.006340897E-1,-1.658142305E0,1.766647508E0
4.319508167E0,-5.595934483E-1,1.319944614E-1,-1.165240737E0,1.299366515E0
4.329569167E0,-4.699160175E-1,1.696616399E-1,-6.198995841E-1,7.961668355E-1
4.339629167E0,-3.720855215E-1,1.620783859E-1,-5.432531118E-2,4.094731712E-1
4.349690167E0,-3.660693213E-1,2.670516944E-1,4.799488163E-1,6.600562262E-1
4.359751167E0,-4.029917108E-1,4.718878448E-1,8.569217330E-1,1.058014798E0
4.369812167E0,-5.789813536E-1,7.818002146E-1,1.193030214E0,1.539399907E0
4.379872167E0,-8.491741723E-1,1.181940385E0,1.524529334E0,2.107669219E0
4.389933167E0,-1.034286202E0,1.472525952E0,1.787444708E0,2.536343670E0
4.399994167E0,-1.144803841E0,1.612499524E0,2.031201680E0,2.834874039E0
4.410054167E0,-1.073024591E0,1.546435928E0,2.246597902E0,2.930878364E0
4.420115167E0,-7.970949228E-1,1.405282972E0,2.481698656E0,2.961251217E0
4.430176167E0,-3.759614946E-1,1.339248027E0,2.702530450E0,3.039507058E0
4.440237167E0,1.248775229E-2,1.159435621E0,3.136107337E0,3.343593297E0
4.450297167E0,2.793092126E-1,1.244583360E0,3.591628826E0,3.811403809E0
4.460358167E0,3.120960125E-1,1.801440604E0,3.928054810E0,4.332690476E0
4.470419167E0,5.910619935E-1,2.142613358E0,4.068013179E0,4.635609724E0
4.480479167E0,8.751840493E-1,2.121503740E0,4.076311548E0,4.677931281E0
4.490540167E0,7.967509604E-1,2.456833956E0,4.022207846E0,4.780062880E0
4.500601167E0,9.305703378E-1,2.346824441E0,3.815579524E0,4.575171386E0
4.510662167E0,1.066632999E0,1.818847765E0,3.513120600E0,4.097307591E0
4.520722167E0,8.038759388E-1,1.405923243E0,3.254228110E0,3.634946669E0
4.530783167E0,5.043794700E-1,8.136020511E-1,3.040200722E0,3.187344879E0
4.540844167E0,1.772674057E-1,3.786960912E-1,2.800944936E0,2.831982874E0
4.550904167E0,-2.420893461E-1,2.450182164E-1,2.710622996E0,2.732419844E0
4.560965167E0,-3.423636858E-1,1.244743574E-1,2.484988300E0,2.511548050E0
4.571026167E0,-1.309557036E-1,1.965073764E-2,2.277943656E0,2.281789396E0
4.581086167E0,8.031296879E-2,-5.746643543E-3,2.144817173E0,2.146328005E0
4.591147167E0,3.400502349E-1,1.135529280E-1,1.881041089E0,1.914900522E0
4.601208167E0,5.616407047E-1,8.799942613E-2,1.575173239E0,1.674620826E0
4.611269167E0,6.667935958E-1,-1.044113910E-1,1.167746269E0,1.348757497E0
4.621329167E0,6.731319045E-1,-2.614787132E-1,7.688913167E-1,1.054832468E0
4.631386542E0,7.460551621E-1,-5.072360176E-1,4.448503196E-1,1.005872004E0
4.641447542E0,8.170703271E-1,-7.680820620E-1,1.070081395E-1,1.126501094E0
4.651507542E0,8.126375529E-1,-9.460040635E-1,-2.959521425E-1,1.281753155E0
4.661568542E0,7.751377510E-1,-1.074486102E0,-7.933946586E-1,1.544290776E0
4.671629542E0,6.903136553E-1,-1.204976660E0,-1.319767444E0,1.915799519E0
4.681690542E0,5.489225721E-1,-1.304110939E0,-1.795355991E0,2.285896863E0
4.691750542E0,4.184179813E-1,-1.312611621E0,-2.227951716E0,2.619502190E0
4.701811542E0,3.339417949E-1,-1.403676742E0,-2.639094007E0,3.007763737E0
4.711872542E0,3.348726717E-1,-1.421448770E0,-2.981711608E0,3.320129580E0
4.721932542E0,2.934432484E-1,-1.363377732E0,-3.310222217E0,3.592002075E0
4.731993542E0,2.649257930E-1,-1.260773715E0,-3.587003678E0,3.811342470E0
4.742054542E0,2.547887675E-1,-1.182622170E0,-3.836990858E0,4.023184231E0
4.752115542E0,2.335449560E-1,-1.128754696E0,-4.007511454E0,4.169985427E0
4.762175542E0,2.037874523E-1,-1.115602553E0,-4.135621026E0,4.288293326E0
4.772236542E0,1.167981327E-1,-1.126137482E0,-4.183896807E0,4.334376533E0
4.782297542E0,5.731177658E-2,-1.119845878E0,-4.291635264E0,4.435704304E0
4.792357542E0,2.087894529E-2,-1.209878966E0,-4.307874736E0,4.474598058E0
4.802418542E0,-2.615985811E-2,-1.285521471E0,-4.311523399E0,4.499164790E0
4.812479542E0,-7.114787852E-2,-1.329400147E0,-4.225010920E0,4.429795034E0
4.822540542E0,-1.067502773E-1,-1.253564683E0,-4.077626002E0,4.267300534E0
4.832600542E0,-1.135293747E-1,-1.071194705E0,-3.855904847E0,4.003542082E0
4.842661542E0,-1.347392906E-1,-7.180930459E-1,-3.651950457E0,3.724319325E0
4.852722542E0,-1.987915912E-1,-3.301431513E-1,-3.361602286E0,3.383619737E0
4.862782542E0,-2.972443771E-1,3.841620684E-4,-3.010913773E0,3.025550547E0
4.872843542E0,-4.101434402E-1,2.932454664E-1,-2.716333387E0,2.762730102E0
4.882904542E0,-4.724921180E-1,4.882243806E-1,-2.365743107E0,2.461372035E0
4.892964542E0,-5.616154155E-1,5.921855360E-1,-1.915471249E0,2.082096465E0
4.903025542E0,-6.164070421E-1,6.961303192E-1,-1.514113689E0,1.776821692E0
4.913086542E0,-6.201621240E-1,8.000300789E-1,-1.092555753E0,1.489405002E0
4.923147542E0,-6.583744092E-1,7.903950369E-1,-4.907778597E-1,1.139756151E0
4.933207542E0,-6.776494633E-1,8.940854663E-1,1.001592958E-1,1.126334542E0
4.943268542E0,-5.973303549E-1,1.021895075E0,6.067521197E-1,1.330120759E0
4.953329542E0,-4.360808118E-1,1.171269216E0,1.252695202E0,1.769543252E0
4.963389542E0,-1.339326672E-1,1.163471369E0,2.005656365E0,2.322554852E0
4.973450542E0,2.843898582E-1,1.123535471E0,2.734211249E0,2.969700439E0
4.983511542E0,5.549476893E-1,1.285989248E0,3.381282259E0,3.659891392E0
4.993571542E0,6.183230285E-1,1.706157301E0,3.877831905E0,4.281457274E0
5.003632542E0,5.231499459E-1,2.253266359E0,4.208216547E0,4.802080971E0
5.013693542E0,1.920187613E-1,2.768395241E0,4.429088101E0,5.226634177E0
5.023754542E0,-5.028937291E-1,3.453923389E0,4.546821789E0,5.732022091E0
5.033814542E0,-9.856487703E-1,3.751802481E0,4.665484598E0,6.067476567E0
5.043875542E0,-9.003339471E-1,2.995376259E0,4.683454261E0,5.631840194E0
5.053936542E0,-8.289596169E-1,2.324212089E0,4.642788046E0,5.257814824E0
5.063996542E0,-8.759352703E-1,1.856698253E0,4.592831190E0,5.030774229E0
5.074057542E0,-9.176257718E-1,1.319946953E0,4.413728051E0,4.697370788E0
5.084118542E0,-1.025878491E0,7.945395434E-1,4.209654377E0,4.405100423E0
5.094179542E0,-1.210496285E0,4.391253108E-1,4.068730633E0,4.267634152E0
5.104239542E0,-1.223609836E0,2.113253903E-1,3.917060291E0,4.109165459E0
5.114300542E0,-1.086699620E0,3.782680750E-2,3.827055854E0,3.978530312E0
5.124361542E0,-9.625268331E-1,-1.134535253E-2,3.816058411E0,3.935592512E0
5.134421542E0,-7.782391141E-1,-5.467965245E-2,3.815315815E0,3.894262542E0
5.144482542E0,-5.996844439E-1,-8.534595966E-2,3.642352252E0,3.692375291E0
5.154543542E0,-4.464476328E-1,-1.859402883E-1,3.404377007E0,3.438556686E0
5.164603542E0,-2.644075835E-1,-3.469351852E-1,3.041590605E0,3.072710335E0
5.174664542E0,-1.225035533E-2,-5.546920198E-1,2.534744596E0,2.594756921E0
5.184725542E0,2.333147219E-1,-8.605373588E-1,1.906783456E0,2.104942625E0
5.194786542E0,4.348067035E-1,-1.181811161E0,1.143566278E0,1.701022728E0
5.204846542E0,5.724758877E-1,-1.510440761E0,3.946519732E-1,1.662801886E0
5.214907542E0,6.489505979E-1,-1.809593961E0,-2.834695065E-1,1.943224677E0
5.224968542E0,5.940956752E-1,-1.910356690E0,-9.809458548E-1,2.228153299E0
5.235028542E0,4.366905302E-1,-2.012383294E0,-1.567594662E0,2.587998873E0
5.245089542E0,3.146633787E-1,-2.077799311E0,-2.100147370E0,2.971006899E0
5.255150542E0,2.379391386E-1,-2.057929303E0,-2.627197262E0,3.345721672E0
5.265211542E0,1.482145097E-1,-2.061782618E0,-3.063636362E0,3.695779060E0
5.275271542E0,6.241537258E-2,-1.983949161E0,-3.416001856E0,3.950825058E0
5.285332542E0,-7.092350990E-2,-1.860397494E0,-3.764487138E0,4.199699084E0
5.295393542E0,-1.704972070E-1,-1.767432320E0,-3.931687685E0,4.314053124E0
5.305453542E0,-3.295388415E-1,-1.686863828E0,-4.066455481E0,4.414766767E0
5.315514542E0,-4.935737059E-1,-1.668663785E0,-3.999612451E0,4.361760377E0
5.325575542E0,-6.438196662E-1,-1.627703454E0,-3.848416902E0,4.227793154E0
5.335635542E0,-6.855964141E-1,-1.664508753E0,-3.661320620E0,4.079938788E0
5.345696542E0,-6.978708892E-1,-1.638209732E0,-3.482649590E0,3.911470704E0
5.355757542E0,-8.034319890E-1,-1.542970283E0,-3.263276092E0,3.698003665E0
5.365818542E0,-8.895512429E-1,-1.448713167E0,-3.033613833E0,3.477482443E0
5.375878542E0,-8.936190046E-1,-1.334748595E0,-2.841072623E0,3.263709912E0
5.385939542E0,-8.531450164E-1,-1.252869449E0,-2.668885571E0,3.069281425E0
5.396000542E0,-7.646629027E-1,-1.174824908E0,-2.499718605E0,2.865923241E0
5.406060542E0,-6.439168762E-1,-1.098496524E0,-2.376002632E0,2.695683969E0
5.416121542E0,-5.455484363E-1,-9.948639822E-1,-2.210891880E0,2.485039304E0
5.426182542E0,-4.259043176E-1,-8.403688502E-1,-2.054937868E0,2.260615830E0
5.436242542E0,-3.274483158E-1,-7.293343180E-1,-1.917750494E0,2.077719400E0
5.446303542E0,-2.822407141E-1,-6.698593640E-1,-1.733212953E0,1.879467618E0
5.456364542E0,-2.559560180E-1,-6.199042618E-1,-1.551801918E0,1.690527719E0
5.466425542E0,-3.152105319E-1,-5.740305161E-1,-1.307032208E0,1.461917202E0
5.476485542E0,-4.701237398E-1,-5.111542368E-1,-1.038235704E0,1.249091014E0
5.486546542E0,-7.289118567E-1,-3.117290998E-1,-7.626155001E-1,1.100031785E0
5.496607542E0,-1.076010764E0,-9.555870652E-2,-4.220888633E-1,1.159779996E0
5.506667542E0,-1.442283422E0,1.191913980E-1,4.677421689E-2,1.447955761E0
5.516728542E0,-1.635051212E0,2.846529830E-1,6.574036252E-1,1.785104846E0
5.526789542E0,-1.773849201E0,5.018443000E-1,1.300397372E0,2.255974737E0
5.536849542E0,-1.716097421E0,6.201106685E-1,2.098439398E0,2.780822811E0
5.546910542E0,-1.326351408E0,6.888230538E-1,2.908959382E0,3.270432684E0
5.556971542E0,-5.846130994E-1,8.061912900E-1,3.583044528E0,3.718860708E0
5.567032542E0,2.349694839E-1,8.718713093E-1,4.126856634E0,4.224490018E0
5.577092542E0,8.690706392E-1,9.945283520E-1,4.453439416E0,4.645158022E0
5.587153542E0,1.277341070E0,1.197079995E0,4.543687096E0,4.869260021E0
5.597214542E0,1.854173864E0,1.183384647E0,4.225520212E0,4.763757026E0
5.607274542E0,1.922726328E0,1.235941175E0,3.782663793E0,4.419612256E0
5.617335542E0,1.433862555E0,1.808889956E0,3.338056133E0,4.058406516E0
5.627396792E0,1.333266326E0,2.123097691E0,2.621237195E0,3.627123838E0
5.637457792E0,1.182807819E0,2.296578732E0,1.953810273E0,3.238932354E0
5.647517792E0,6.859780911E-1,2.517949054E0,1.697668313E0,3.113311916E0
5.657578792E0,1.942183377E-1,2.529290898E0,1.640459740E0,3.020950409E0
5.667639792E0,-1.298812777E-1,2.376663952E0,1.620200892E0,2.879314435E0
5.677699792E0,-4.059793456E-1,2.165123969E0,1.733191903E0,2.802951159E0
5.687760792E0,-2.772679496E-1,1.705350970E0,1.824238313E0,2.512557436E0
5.697821792E0,2.323573865E-1,1.161262291E0,1.927013068E0,2.261835412E0
5.707881792E0,7.704077920E-1,6.988288093E-1,2.266831023E0,2.494075531E0
5.717942792E0,1.246190467E0,2.668245301E-1,2.625458885E0,2.918427722E0
5.728003792E0,1.543930981E0,-8.714105487E-2,2.832943239E0,3.227519765E0
5.738063792E0,1.710260438E0,-2.899295104E-1,2.761230648E0,3.260896284E0
5.748124792E0,1.757040649E0,-5.126005456E-1,2.500913776E0,3.099116144E0
5.758185792E0,1.681005795E0,-7.011329046E-1,2.106820212E0,2.784970240E0
5.768246792E0,1.534741350E0,-8.650911704E-1,1.595242052E0,2.376680658E0
5.778306792E0,1.420845629E0,-1.001530977E0,9.907469577E-1,2.000861348E0
5.788367792E0,1.244978047E0,-1.076435857E0,4.113060129E-1,1.696424807E0
5.798428792E0,1.035175856E0,-1.022582416E0,-2.638018119E-1,1.478801963E0
5.808488792E0,8.352200845E-1,-9.644619691E-1,-9.424834549E-1,1.586207597E0
5.818549792E0,6.934129719E-1,-9.849327788E-1,-1.598907087E0,2.001853641E0
5.828610792E0,5.982704410E-1,-1.034264860E0,-2.193605756E0,2.497906631E0
5.838670792E0,5.293589580E-1,-1.077116472E0,-2.782077726E0,3.029910440E0
5.848731792E0,5.168232585E-1,-1.141691660E0,-3.273519244E0,3.505209604E0
5.858792792E0,4.629002358E-1,-1.155543714E0,-3.664837720E0,3.870477156E0
5.868853792E0,4.533590417E-1,-1.172415270E0,-4.017732387E0,4.209782123E0
5.878913792E0,4.230159393E-1,-1.225738369E0,-4.295427768E0,4.486878285E0
5.888974792E0,3.808123447E-1,-1.290498913E0,-4.460798721E0,4.659305819E0
5.899035792E0,3.588614586E-1,-1.293638576E0,-4.614436067E0,4.805757227E0
5.909095792E0,3.069361371E-1,-1.383552965E0,-4.614372917E0,4.827097059E0
5.919156792E0,2.695595652E-1,-1.333624468E0,-4.636070765E0,4.831601051E0
5.929217792E0,2.640051854E-1,-1.330011765E0,-4.610179878E0,4.805454042E0
5.939278792E0,2.768449401E-1,-1.370528877E0,-4.459436905E0,4.673496553E0
5.949338792E0,2.973882186E-1,-1.330255887E0,-4.316060253E0,4.526190074E0
5.959399792E0,2.877264257E-1,-1.242034559E0,-4.196482354E0,4.385875111E0
5.969460792E0,2.144574879E-1,-1.009290525E0,-4.015288251E0,4.145744700E0
5.979520792E0,9.100445643E-2,-7.843308896E-1,-3.764148000E0,3.846071622E0
5.989581792E0,-6.391182125E-2,-4.136045533E-1,-3.482375355E0,3.507433757E0
5.999642792E0,-2.018964627E-1,-3.071893215E-2,-3.133807043E0,3.140454174E0
6.009702792E0,-2.680474387E-1,2.119156668E-1,-2.595073829E0,2.617473181E0
6.019763792E0,-1.727922026E-1,2.978124341E-1,-1.948127364E0,1.978319898E0
6.029824792E0,4.312380016E-2,1.782576317E-1,-1.301829355E0,1.314684417E0
6.039885792E0,2.445676884E-1,9.065610856E-2,-6.110907537E-1,6.644274177E-1
6.049945792E0,3.954356463E-1,1.146656531E-1,1.663182020E-2,4.120608934E-1
6.060006792E0,4.214792910E-1,2.979934055E-1,5.975936258E-1,7.896600560E-1
6.070067792E0,3.215613391E-1,6.411676615E-1,1.120408380E0,1.330343040E0
6.080127792E0,2.178554146E-1,1.021989216E0,1.605280552E0,1.915423867E0
6.090188792E0,2.442604172E-1,1.348614682E0,2.023134862E0,2.443665153E0
6.100249792E0,3.747324099E-1,1.569545001E0,2.491461752E0,2.968379617E0
6.110309792E0,5.742458399E-1,1.833008844E0,2.932985591E0,3.506006871E0
6.120370792E0,7.739130516E-1,2.173009816E0,3.307466424E0,4.032399685E0
6.130431792E0,8.507957514E-1,2.447604419E0,3.614686151E0,4.447536034E0
6.140492792E0,5.161798090E-1,2.941636546E0,3.812212113E0,4.842791381E0
6.150552792E0,-1.700146656E-1,3.865636660E0,3.903353832E0,5.496200771E0
6.160613792E0,-7.927695912E-1,4.505223527E0,4.106317704E0,6.147143055E0
6.170674792E0,-8.198740670E-1,3.962093499E0,4.307590562E0,5.909798205E0
6.180734792E0,-9.002696277E-1,3.572169584E0,4.441253234E0,5.770234937E0
6.190795792E0,-1.021632097E0,3.182698537E0,4.685745785E0,5.755824500E0
6.200856792E0,-9.777430424E-1,2.099003654E0,4.795596841E0,5.325368237E0
6.210916792E0,-1.095288888E0,1.072094591E0,4.691344494E0,4.935357912E0
6.220977792E0,-1.373067445E0,4.255761427E-1,4.640447990E0,4.858002348E0
6.231038792E0,-1.338666522E0,-2.655434051E-1,4.652468696E0,4.848505577E0
6.241098792E0,-9.859826463E-1,-9.150494885E-1,4.656251260E0,4.846664125E0
6.251159792E0,-7.041984536E-1,-1.220113932E0,4.585188294E0,4.796720250E0
6.261220792E0,-5.336774191E-1,-1.232807360E0,4.387508551E0,4.588557165E0
6.271281792E0,-4.310077675E-1,-1.238311052E0,4.057137943E0,4.263748380E0
6.281341792E0,-3.968300611E-1,-1.130457990E0,3.615870212E0,3.809189777E0
6.291402792E0,-2.839967792E-1,-1.014510042E0,3.186690431E0,3.356319516E0
6.301463792E0,-8.155155525E-2,-9.561729562E-1,2.780802448E0,2.941730721E0
6.311523792E0,1.654605617E-1,-1.027393212E0,2.248150338E0,2.477315877E0
6.321584792E0,4.224582611E-1,-1.222688169E0,1.588836427E0,2.048862741E0
6.331645792E0,5.957866900E-1,-1.544453722E0,9.573646188E-1,1.912288182E0
6.341705792E0,6.725642860E-1,-1.822624774E0,2.454555881E-1,1.958201274E0
6.351766792E0,5.845429328E-1,-2.005233611E0,-4.591450077E-1,2.138566439E0
6.361827792E0,3.649494334E-1,-2.120880719E0,-1.152035969E0,2.441005938E0
6.371888792E0,1.439904629E-1,-2.196246359E0,-1.805151247E0,2.846542173E0
6.381948792E0,-6.783705711E-2,-2.134451230E0,-2.389237804E0,3.204518872E0
6.392009792E0,-1.817472500E-1,-2.080372671E0,-2.886013738E0,3.562310740E0
6.402070792E0,-2.337937550E-1,-2.095009129E0,-3.288138453E0,3.905838867E0
6.412130792E0,-2.836449230E-1,-2.041366772E0,-3.618440064E0,4.164221564E0
6.422191792E0,-3.192296156E-1,-1.971116862E0,-3.864471602E0,4.349867814E0
6.432252792E0,-2.698155271E-1,-1.929404579E0,-4.036643452E0,4.482175009E0
6.442312792E0,-2.194600368E-1,-1.908309287E0,-4.073724155E0,4.503891155E0
6.452373792E0,-2.233792792E-1,-1.891039243E0,-4.055032361E0,4.479867762E0
6.462434792E0,-2.347548911E-1,-1.883355417E0,-4.037932178E0,4.461729907E0
6.472495792E0,-2.317559821E-1,-1.847875390E0,-4.004204854E0,4.416108106E0
6.482555792E0,-2.213659367E-1,-1.812188078E0,-3.936719799E0,4.339445965E0
6.492616792E0,-2.271828930E-1,-1.734857190E0,-3.860099639E0,4.238125855E0
6.502677792E0,-2.426995030E-1,-1.590301155E0,-3.702932914E0,4.037285348E0
6.512737792E0,-2.818154754E-1,-1.433108410E0,-3.561527359E0,3.849376158E0
6.522798792E0,-3.662245649E-1,-1.254932639E0,-3.384599385E0,3.628290142E0
6.532859792E0,-4.640204161E-1,-1.049943292E0,-3.165798914E0,3.367488474E0
6.542919792E0,-5.396792936E-1,-8.697639728E-1,-2.921383545E0,3.095516908E0
6.552980792E0,-6.237488061E-1,-6.551805139E-1,-2.678391974E0,2.827031596E0
6.563041792E0,-6.807066800E-1,-4.059765682E-1,-2.490489945E0,2.613564371E0
6.573101792E0,-8.170236956E-1,-8.369909137E-2,-2.167148275E0,2.317555803E0
6.583162792E0,-9.448014374E-1,1.574707800E-1,-1.730080014E0,1.977529686E0
6.593223792E0,-1.063815080E0,3.513094872E-1,-1.176904178E0,1.624876710E0
6.603284792E0,-1.098630718E0,4.301015952E-1,-6.174601257E-1,1.331628268E0
6.613344792E0,-1.090507181E0,4.230074608E-1,-7.612723947E-2,1.172150409E0
6.623405792E0,-1.003941054E0,4.115802473E-1,3.375808096E-1,1.136334784E0
6.633466042E0,-1.016611531E0,5.399216607E-1,7.952224982E-1,1.399068700E0
6.643526042E0,-1.059496180E0,6.920919397E-1,1.245960379E0,1.775933748E0
6.653587042E0,-1.024115556E0,8.406474701E-1,1.638794453E0,2.107403165E0
6.663648042E0,-8.945884730E-1,8.614696974E-1,2.059287027E0,2.404803866E0
6.673708042E0,-6.966630006E-1,7.778799489E-1,2.542602085E0,2.748683669E0
6.683769042E0,-3.836326030E-1,6.802057198E-1,3.036753788E0,3.135558541E0
6.693830042E0,5.705930477E-2,5.264701411E-1,3.652571431E0,3.690759357E0
6.703891042E0,5.809433503E-1,6.434419361E-1,4.144572528E0,4.234264298E0
6.713951042E0,9.951110271E-1,1.108468073E0,4.490317805E0,4.730951428E0
6.724012042E0,1.030489752E0,1.910611628E0,4.763799098E0,5.235086223E0
6.734073042E0,1.157957152E0,2.359976583E0,4.942684135E0,5.598256934E0
6.744133042E0,1.215494047E0,2.582476880E0,5.059619093E0,5.809161555E0
6.754194042E0,9.927639547E-1,2.910971116E0,5.173055661E0,6.018291949E0
6.764255042E0,9.118721846E-1,2.802469305E0,5.123989336E0,5.911058433E0
6.774315042E0,1.138998579E0,2.080770866E0,4.936622912E0,5.476967312E0
6.784376042E0,1.381227820E0,1.067554813E0,4.738797573E0,5.050115445E0
6.794437042E0,1.432837099E0,-2.473518401E-2,4.555062270E0,4.775167668E0
6.804498042E0,1.249150035E0,-8.181938696E-1,4.189731744E0,4.447883666E0
6.814558042E0,9.421342300E-1,-1.157804540E0,3.824500621E0,4.105476009E0
6.824619042E0,6.279376783E-1,-1.213498684E0,3.587537529E0,3.838920461E0
6.834680042E0,4.986364444E-1,-1.128970166E0,3.273008782E0,3.497970616E0
6.844740042E0,6.647718479E-1,-9.013681734E-1,2.813894180E0,3.028594831E0
6.854801042E0,8.194818650E-1,-6.428539985E-1,2.287642432E0,2.513587016E0
6.864862042E0,8.435753171E-1,-5.368609357E-1,1.820990185E0,2.077461006E0
6.874922042E0,8.288584600E-1,-5.293525261E-1,1.244449459E0,1.586150970E0
6.884983042E0,8.367048387E-1,-5.452122214E-1,5.863669717E-1,1.158083580E0
6.895044042E0,8.641893104E-1,-7.327534774E-1,2.852681100E-2,1.133386343E0
6.905104042E0,8.651068117E-1,-9.969201556E-1,-4.412671459E-1,1.391752954E0
6.915165042E0,8.179487251E-1,-1.274689504E0,-9.624785936E-1,1.794502296E0
6.925226042E0,7.237012567E-1,-1.508320853E0,-1.484691085E0,2.236757233E0
6.935287042E0,5.617177418E-1,-1.684407705E0,-1.983948576E0,2.662481567E0
6.945347042E0,3.891228461E-1,-1.674843122E0,-2.558615854E0,3.082698682E0
6.955408042E0,1.783394927E-1,-1.704123347E0,-3.012149874E0,3.465384282E0
6.965469042E0,-2.344294935E-3,-1.690387360E0,-3.377193301E0,3.776618794E0
6.975529042E0,-1.121066192E-1,-1.682616118E0,-3.721360415E0,4.085619688E0
6.985590042E0,-2.551603581E-1,-1.621396063E0,-3.963221135E0,4.289656602E0
6.995651042E0,-3.387292027E-1,-1.528796925E0,-4.188081660E0,4.471239817E0
7.005711042E0,-4.063203844E-1,-1.366182057E0,-4.380179066E0,4.606247748E0
7.015772042E0,-4.960482475E-1,-1.119735073E0,-4.470144326E0,4.634874410E0
7.025833042E0,-6.590515168E-1,-8.330878973E-1,-4.533983642E0,4.656757672E0
7.035893042E0,-8.295529631E-1,-5.894747669E-1,-4.554212669E0,4.666528866E0
7.045954042E0,-9.340513314E-1,-3.936722723E-1,-4.489324948E0,4.602332912E0
7.056015042E0,-1.051180124E0,-2.614752048E-1,-4.411248831E0,4.542297347E0
7.066076042E0,-1.159139606E0,-1.227693093E-1,-4.154599918E0,4.315017660E0
7.076136042E0,-1.089798060E0,-1.315360397E-2,-3.912052150E0,4.061032486E0
7.086197042E0,-9.888290709E-1,9.577505350E-2,-3.516457606E0,3.654097684E0
7.096258042E0,-8.621782337E-1,1.255733415E-1,-3.062651691E0,3.184172632E0
7.106318042E0,-7.007972744E-1,9.519442499E-2,-2.625874037E0,2.719447234E0
7.116379042E0,-4.407362187E-1,-1.905169040E-2,-2.123171951E0,2.168518045E0
7.126440042E0,-9.101571232E-2,-2.286205772E-1,-1.571269053E0,1.590420593E0
7.136500042E0,2.037536846E-1,-4.099243158E-1,-9.838267779E-1,1.085112270E0
7.146561042E0,5.128499293E-1,-5.552176845E-1,-5.185655826E-1,9.166198725E-1
7.156622042E0,7.363451296E-1,-6.375839031E-1,-1.257531434E-1,9.821055119E-1
7.166683042E0,8.045169398E-1,-5.471035033E-1,1.484584665E-1,9.841796920E-1
7.176743042E0,8.377399421E-1,-4.607491913E-1,2.852985156E-1,9.977440909E-1
7.186804042E0,7.099423197E-1,-2.369373643E-1,3.766448879E-1,8.378656118E-1
7.196865042E0,4.090859713E-1,7.759547532E-2,4.759592611E-1,6.323840667E-1
7.206925042E0,1.472492623E-1,3.529774055E-1,5.743480200E-1,6.900369860E-1
7.216986042E0,4.605851769E-3,5.691077453E-1,6.399800920E-1,8.564340943E-1
7.227047042E0,3.472661376E-2,7.600178745E-1,7.637913752E-1,1.078058613E0
7.237107042E0,2.041315609E-1,8.703674054E-1,9.618213665E-1,1.313129642E0
7.247168042E0,3.810889180E-1,9.540515864E-1,1.191570164E0,1.573303101E0
7.257229042E0,4.402916841E-1,1.074804776E0,1.369676353E0,1.795849488E0
7.267289042E0,4.027918822E-1,1.231036531E0,1.464840957E0,1.955364741E0
7.277350042E0,2.272879967E-1,1.503705353E0,1.500496109E0,2.136417139E0
7.287411042E0,-1.820425161E-1,1.979747060E0,1.559153037E0,2.526558151E0
7.297472042E0,-9.382667354E-1,2.742020790E0,1.769336466E0,3.395522642E0
7.307532042E0,-1.647870647E0,3.468381214E0,2.189746594E0,4.420422611E0
7.317593042E0,-1.760440074E0,3.436008982E0,2.701305458E0,4.711937834E0
7.327654042E0,-1.560457843E0,2.857281105E0,3.307268788E0,4.640809286E0
7.337714042E0,-1.170105620E0,2.021709895E0,3.886349545E0,4.534332459E0
7.347775042E0,-5.840869962E-1,7.935282674E-1,4.344556659E0,4.454886900E0
7.357836042E0,1.942449608E-3,-4.898525378E-1,4.629876224E0,4.655718326E0
7.367896042E0,3.894077517E-1,-1.438834588E0,4.650743183E0,4.883778816E0
7.377957042E0,7.021177219E-1,-1.987483803E0,4.395956023E0,4.875191332E0
7.388018042E0,7.065357319E-1,-1.921351209E0,4.040543545E0,4.529544718E0
7.398078042E0,4.184904867E-1,-1.589233453E0,3.678421971E0,4.028844183E0
7.408139042E0,-1.124087740E-1,-1.070118232E0,3.340706091E0,3.509715936E0
7.418200042E0,-5.912501277E-1,-6.645173478E-1,2.950597404E0,3.081750324E0
7.428261042E0,-1.035806625E0,-3.329006982E-1,2.702798837E0,2.913561359E0
7.438321042E0,-1.233178804E0,-1.841972333E-1,2.552006162E0,2.840315834E0
7.448382042E0,-1.082639899E0,-3.942245418E-1,2.514276418E0,2.765702089E0
7.458443042E0,-6.677948584E-1,-7.271954066E-1,2.413733545E0,2.607848300E0
7.468503042E0,-1.508194260E-1,-1.094670691E0,2.290011724E0,2.542676566E0
7.478564042E0,2.813570537E-1,-1.528104614E0,2.131717072E0,2.637893701E0
7.488625042E0,5.826458037E-1,-1.732919715E0,1.735357711E0,2.520704913E0
7.498685042E0,6.559538081E-1,-1.824774503E0,1.275523317E0,2.320999163E0
7.508746042E0,5.053413735E-1,-1.784205936E0,7.341799057E-1,1.994437479E0
7.518807042E0,2.517201488E-1,-1.664011155E0,1.036331266E-1,1.686130476E0
7.528868042E0,9.536399424E-2,-1.556588448E0,-4.924197578E-1,1.635401818E0
7.538928042E0,-5.102572739E-3,-1.476267586E0,-1.075155024E0,1.826294157E0
7.548989042E0,-4.706350788E-2,-1.461532018E0,-1.588171599E0,2.158837613E0
7.559050042E0,1.449977919E-2,-1.483672500E0,-2.053433964E0,2.533394042E0
7.569110042E0,2.507973120E-2,-1.543559682E0,-2.426230799E0,2.875726234E0
7.579171042E0,7.633876249E-2,-1.596666141E0,-2.765073438E0,3.193869360E0
7.589232042E0,1.380061300E-1,-1.608348001E0,-3.062564567E0,3.461954753E0
7.599292042E0,2.123185399E-1,-1.578494457E0,-3.265908508E0,3.633577066E0
7.609353042E0,2.089853346E-1,-1.523981743E0,-3.382756927E0,3.716078531E0
7.619414042E0,2.056553453E-1,-1.515924864E0,-3.416381925E0,3.743258978E0
7.629474292E0,1.065571730E-1,-1.498484082E0,-3.419596725E0,3.735030218E0
7.639535292E0,-5.290396269E-3,-1.409650550E0,-3.385177674E0,3.666956578E0
7.649596292E0,-1.044620973E-1,-1.341545983E0,-3.345365152E0,3.605846081E0
7.659657292E0,-2.105706610E-1,-1.213704799E0,-3.247278110E0,3.473072770E0
7.669717292E0,-3.652486646E-1,-1.083630563E0,-3.027615759E0,3.236374356E0
7.679778292E0,-5.414897378E-1,-8.708193952E-1,-2.789307223E0,2.971829796E0
7.689839292E0,-6.468564177E-1,-7.036980781E-1,-2.536543200E0,2.710657783E0
7.699899292E0,-7.660204799E-1,-5.469687250E-1,-2.246219587E0,2.435459833E0
7.709960292E0,-8.891511472E-1,-3.256904966E-1,-1.966755424E0,2.182840113E0
7.720021292E0,-9.688076198E-1,-1.688477075E-1,-1.709744568E0,1.972390489E0
7.730081292E0,-1.104364059E0,4.624825984E-2,-1.410881097E0,1.792301410E0
7.740142292E0,-1.221793691E0,1.803646758E-1,-1.090161318E0,1.647350278E0
7.750203292E0,-1.223812442E0,2.005296761E-1,-7.257938290E-1,1.436908392E0
7.760264292E0,-1.073714270E0,1.073133641E-1,-3.656035906E-1,1.139317549E0
7.770324292E0,-9.043936689E-1,-2.380723089E-2,-4.363484681E-2,9.057586282E-1
7.780385292E0,-7.728683004E-1,-8.572573632E-2,2.429962492E-1,8.146910388E-1
7.790446292E0,-7.400396928E-1,-3.545693099E-2,4.257047814E-1,8.544825930E-1
7.800506292E0,-8.863246031E-1,5.973164678E-2,6.095734012E-1,1.077366652E0
7.810567292E0,-1.164694460E0,2.032129633E-1,7.928391731E-1,1.423517702E0
7.820628292E0,-1.438797751E0,2.470536321E-1,9.608355260E-1,1.747678281E0
7.830688292E0,-1.528997046E0,2.105073649E-1,1.124845832E0,1.909822888E0
7.840749292E0,-1.406319976E0,8.091669381E-3,1.290333729E0,1.908602233E0
7.850810292E0,-1.051267540E0,-2.880075306E-1,1.566749155E0,1.908615910E0
7.860871292E0,-5.699674322E-1,-5.814833772E-1,1.835118812E0,2.007647092E0
7.870931292E0,1.713029534E-2,-7.726914221E-1,2.082675304E0,2.221459409E0
7.880992292E0,5.811438002E-1,-7.155591550E-1,2.310445989E0,2.487551746E0
7.891053292E0,9.720477082E-1,-2.615038562E-1,2.518381163E0,2.712103372E0
7.901113292E0,9.441275458E-1,5.395453924E-1,2.672317302E0,2.885093727E0
7.911174292E0,6.775602932E-1,1.457130526E0,2.861873508E0,3.282169602E0
7.921235292E0,5.847240503E-1,1.740155936E0,3.110502380E0,3.611823633E0
7.931296292E0,3.935681918E-1,2.020087293E0,3.262259261E0,3.857198994E0
7.941356292E0,-1.819794575E-1,2.497017192E0,3.497105661E0,4.300925410E0
7.951417292E0,-5.187211186E-1,2.534866803E0,3.632778021E0,4.460010926E0
7.961478292E0,-4.692966512E-1,2.130545874E0,3.594899758E0,4.205088506E0
7.971538292E0,2.074153572E-2,1.140352063E0,3.507354076E0,3.688138508E0
7.981599292E0,4.894547810E-1,6.476376057E-3,3.460734226E0,3.495180869E0
7.991660292E0,6.475190534E-1,-1.073738244E0,3.342380733E0,3.569832448E0
8.001720292E0,3.538797770E-1,-1.746744579E0,2.985019378E0,3.476591464E0
8.011781292E0,-1.962078528E-1,-2.109427485E0,2.658880985E0,3.399680857E0
8.021842292E0,-7.260057905E-1,-2.286268337E0,2.498652073E0,3.463721914E0
8.031903292E0,-1.078086525E0,-2.128960109E0,2.354168544E0,3.352141291E0
8.041963292E0,-1.153454504E0,-1.779856192E0,2.106736597E0,2.989428782E0
8.052024292E0,-9.350687470E-1,-1.510121795E0,1.940033648E0,2.630314041E0
8.062085292E0,-5.601053721E-1,-1.344794111E0,1.934695140E0,2.421824625E0
8.072145292E0,-1.869707139E-1,-1.282237090E0,1.854680087E0,2.262504857E0
8.082206292E0,8.452486441E-2,-1.373317414E0,1.716703924E0,2.200049439E0
8.092267292E0,3.100554805E-1,-1.499578680E0,1.513013828E0,2.152691679E0
8.102328292E0,3.162973832E-1,-1.598974330E0,1.184856976E0,2.015105207E0
8.112388292E0,1.877753638E-1,-1.638627807E0,7.650175363E-1,1.818134349E0
8.122449292E0,1.126276061E-2,-1.608141010E0,2.551789230E-1,1.628299923E0
8.132510292E0,-2.225314330E-1,-1.510826969E0,-2.705535918E-1,1.550908642E0
8.142570292E0,-4.131563643E-1,-1.406773428E0,-7.507181704E-1,1.647205946E0
8.152631292E0,-6.825051373E-1,-1.324234716E0,-1.136563652E0,1.873816368E0
8.162692292E0,-9.115911528E-1,-1.278366233E0,-1.465129809E0,2.147515777E0
8.172753292E0,-1.085023662E0,-1.261209918E0,-1.684187558E0,2.367364470E0
8.182813292E0,-1.197274708E0,-1.231207854E0,-1.808644958E0,2.494100257E0
8.192874292E0,-1.197357884E0,-1.246785421E0,-1.797803051E0,2.494040016E0
8.202935292E0,-1.119284838E0,-1.239208599E0,-1.707048417E0,2.387980485E0
8.212995292E0,-9.678247029E-1,-1.245913017E0,-1.594255627E0,2.242907690E0
8.223056292E0,-7.884506916E-1,-1.289551957E0,-1.438858269E0,2.086842558E0
8.233117292E0,-6.900673413E-1,-1.329852721E0,-1.248987483E0,1.950556569E0
8.243177292E0,-5.517511627E-1,-1.394619405E0,-1.134749261E0,1.880704261E0
8.253238292E0,-4.689646755E-1,-1.434949991E0,-1.010590069E0,1.816673231E0
8.263299292E0,-4.066731177E-1,-1.451204665E0,-9.604490250E-1,1.787131874E0
8.273360292E0,-3.969261016E-1,-1.441647391E0,-9.397498816E-1,1.766076830E0
8.283420292E0,-4.592605268E-1,-1.385754442E0,-8.856292230E-1,1.707505410E0
8.293481292E0,-5.483384353E-1,-1.334459742E0,-7.883216143E-1,1.644052557E0
8.303542292E0,-6.091771062E-1,-1.234087608E0,-7.372415078E-1,1.561279607E0
8.313602292E0,-6.866111983E-1,-1.149571368E0,-6.148037356E-1,1.473408600E0
8.323663292E0,-7.417150663E-1,-1.046422976E0,-4.337698460E-1,1.353993561E0
8.333724292E0,-7.543630323E-1,-1.035541892E0,-2.433201849E-1,1.304076419E0
8.343785292E0,-7.918479969E-1,-9.724627143E-1,-6.737220347E-2,1.255884547E0
8.353845292E0,-7.572894175E-1,-9.400094980E-1,8.138447106E-2,1.209846499E0
8.363906292E0,-7.100841878E-1,-9.106161296E-1,1.733711135E-1,1.167689527E0
8.373967292E0,-7.097977473E-1,-8.729644462E-1,2.830549389E-1,1.160172343E0
8.384027292E0,-7.606387027E-1,-8.702323347E-1,3.203309387E-1,1.199369611E0
8.394088292E0,-8.967610791E-1,-7.867881820E-1,3.640991020E-1,1.247310800E0
8.404149292E0,-1.012803751E0,-7.006528482E-1,4.065580738E-1,1.296909912E0
8.414210292E0,-9.809313829E-1,-7.922272620E-1,4.571978849E-1,1.341223441E0
8.424270292E0,-8.450205296E-1,-8.837727320E-1,5.454124886E-1,1.338875917E0
8.434331292E0,-6.278979903E-1,-1.035051311E0,5.774295026E-1,1.341272505E0
8.444392292E0,-4.013256563E-1,-1.222030357E0,6.989726508E-1,1.463893180E0
8.454452292E0,-1.234787227E-1,-1.296841096E0,6.894989920E-1,1.473924246E0
8.464513292E0,1.447564481E-1,-1.391481789E0,6.670176172E-1,1.549867253E0
8.474574292E0,3.314117778E-1,-1.417744558E0,6.846814710E-1,1.608919549E0
8.484635292E0,3.707312698E-1,-1.217923273E0,6.651535249E-1,1.436387129E0
8.494695292E0,3.330026590E-1,-9.390195644E-1,5.898618525E-1,1.157836568E0
8.504756292E0,1.617520382E-1,-6.726695359E-1,4.184992576E-1,8.085726034E-1
8.514817292E0,-9.959679365E-2,-4.429514363E-1,2.639631951E-1,5.251686059E-1
8.524877292E0,-3.540406851E-1,-2.343382770E-1,8.614351988E-2,4.332204298E-1
8.534938292E0,-5.624553680E-1,-7.672716379E-2,-3.065051973E-2,5.684914714E-1
8.544999292E0,-6.978376331E-1,-8.201304674E-3,-7.921573877E-2,7.023672521E-1
8.555060292E0,-7.662830199E-1,-1.795446038E-2,-4.018206596E-2,7.675458473E-1
8.565120292E0,-7.750528932E-1,-9.122241139E-3,9.446176887E-3,7.751641328E-1
8.575181292E0,-6.564421968E-1,-1.205903444E-1,1.256145644E-1,6.791446147E-1
8.585242292E0,-5.831625514E-1,-2.962956664E-1,3.456885588E-1,7.398447560E-1
8.595302292E0,-6.120491123E-1,-4.651074135E-1,5.683557934E-1,9.560111557E-1
8.605363292E0,-9.206020045E-1,-3.555639213E-1,7.921907169E-1,1.265503807E0
8.615424292E0,-1.356627999E0,-2.020417660E-2,1.174410925E0,1.794460575E0
8.625485292E0,-1.352213058E0,1.516680032E-2,1.600205753E0,2.095082013E0
8.635546208E0,-7.310952070E-1,-3.587532851E-1,2.050512110E0,2.206310050E0
8.645607208E0,8.171995506E-2,-9.757041183E-1,2.325686756E0,2.523389698E0
8.655668208E0,7.784834547E-1,-1.654141640E0,2.290198250E0,2.930397427E0
8.665728208E0,1.120984258E0,-2.081113805E0,1.882510495E0,3.021834896E0
8.675789208E0,7.771239039E-1,-2.081687417E0,1.176943354E0,2.514466091E0
8.685850208E0,-1.647091579E-1,-1.714056012E0,4.447140795E-1,1.778450936E0
8.695911208E0,-1.480574499E0,-1.092703103E0,-5.096550107E-2,1.840841764E0
8.705971208E0,-2.469867108E0,-4.909146845E-1,-4.901808590E-1,2.565446946E0
8.716032208E0,-3.288077642E0,6.896732390E-2,-4.340440804E-1,3.317318998E0
8.726093208E0,-3.690866308E0,3.875625166E-1,-2.229385453E-1,3.717848894E0
8.736153208E0,-3.776173091E0,4.869102189E-1,1.098855543E-1,3.809020821E0
8.746214208E0,-3.643521403E0,1.961983511E-1,7.121014041E-1,3.717637747E0
8.756275208E0,-3.162089440E0,-1.840674251E-1,1.262159505E0,3.409653511E0
8.766336208E0,-2.700723075E0,-7.510628638E-1,1.766844383E0,3.313569017E0
8.776396208E0,-2.051197404E0,-1.389262186E0,2.082689922E0,3.236519353E0
8.786457208E0,-1.481270463E0,-1.933533298E0,2.249985194E0,3.315893028E0
8.796518208E0,-1.155865676E0,-2.301920456E0,2.198876436E0,3.386727156E0
8.806578208E0,-9.175564092E-1,-2.520791678E0,1.891773654E0,3.282545964E0
8.816639208E0,-1.028913561E0,-2.501470139E0,1.474623933E0,3.080670660E0
8.826700208E0,-1.395853460E0,-2.339570093E0,1.024479545E0,2.910593314E0
8.836761208E0,-1.748425507E0,-2.090014145E0,4.982915318E-1,2.770098433E0
8.846821208E0,-2.057674949E0,-1.750272204E0,6.006903112E-2,2.702052419E0
8.856882208E0,-2.348375415E0,-1.478730433E0,-2.565500951E-1,2.786992776E0
8.866943208E0,-2.558104808E0,-1.252960958E0,-5.314078224E-1,2.897620687E0
8.877003208E0,-2.722246091E0,-1.088277345E0,-7.190736240E-1,3.018615285E0
8.887064208E0,-2.819209007E0,-9.677361175E-1,-7.436828005E-1,3.072054154E0
8.897125208E0,-2.852536089E0,-8.703697443E-1,-6.747277558E-1,3.057738245E0
8.907186208E0,-2.789955972E0,-8.460032272E-1,-4.934009206E-1,2.956859863E0
8.917246208E0,-2.590193743E0,-8.263621375E-1,-3.287070751E-1,2.738617598E0
8.927307208E0,-2.484605307E0,-7.830646750E-1,-1.362143970E-1,2.608641060E0
8.937368208E0,-2.423474568E0,-7.872577134E-1,1.194995463E-1,2.550937833E0
8.947429208E0,-2.430449565E0,-8.408193782E-1,3.144112176E-1,2.590929704E0
8.957489208E0,-2.408337296E0,-9.052083322E-1,4.863871855E-1,2.618408515E0
8.967550208E0,-2.316695639E0,-1.029609015E0,6.636952293E-1,2.620622973E0
8.977611208E0,-2.211574542E0,-1.168781518E0,8.123694581E-1,2.630029720E0
8.987671208E0,-2.086592062E0,-1.281532208E0,8.856508577E-1,2.603952510E0
8.997732208E0,-2.046442448E0,-1.328515171E0,9.708711022E-1,2.625922685E0
9.007793208E0,-2.066609933E0,-1.319082442E0,1.053006356E0,2.668272379E0
9.017854208E0,-2.048381531E0,-1.331282365E0,1.006095314E0,2.642046066E0
9.027914208E0,-2.022843086E0,-1.348728995E0,9.571283913E-1,2.612864101E0
9.037975208E0,-1.950878917E0,-1.352639320E0,9.060956472E-1,2.540978356E0
9.048036208E0,-1.850804406E0,-1.279076377E0,8.209040540E-1,2.394868847E0
9.058096208E0,-1.747519043E0,-1.230162957E0,7.158015221E-1,2.253773619E0
9.068157208E0,-1.718913148E0,-1.145649933E0,5.799940914E-1,2.145593001E0
9.078218208E0,-1.664077375E0,-1.098217320E0,4.435452211E-1,2.042539389E0
9.088279208E0,-1.593407488E0,-1.084228441E0,3.158244896E-1,1.953008920E0
9.098339208E0,-1.555092000E0,-9.951738846E-1,1.901666558E-1,1.856029511E0
9.108400208E0,-1.523728704E0,-9.019002700E-1,1.102504206E-1,1.774071142E0
9.118461208E0,-1.487465442E0,-8.105477580E-1,-2.538217843E-2,1.694162142E0
9.128521208E0,-1.490874661E0,-7.252485761E-1,-1.505734044E-1,1.664741753E0
9.138582208E0,-1.512737547E0,-6.505085886E-1,-2.779661071E-1,1.669970499E0
9.148643208E0,-1.499353709E0,-6.024392134E-1,-3.446553558E-1,1.652205152E0
9.158704208E0,-1.533700254E0,-5.728242356E-1,-3.637582093E-1,1.677105872E0
9.168764208E0,-1.550774123E0,-4.732096079E-1,-4.147722423E-1,1.673578121E0
9.178825208E0,-1.508383856E0,-4.375681973E-1,-4.065247446E-1,1.622328621E0
9.188886208E0,-1.499658056E0,-4.267046553E-1,-3.605223602E-1,1.600321068E0
9.198946208E0,-1.465134487E0,-4.316727421E-1,-3.140019125E-1,1.559345254E0
9.209007208E0,-1.407347770E0,-4.473067349E-1,-2.774065286E-1,1.502552976E0
9.219068208E0,-1.367726014E0,-4.594438004E-1,-2.676223826E-1,1.467441581E0
9.229129208E0,-1.316130475E0,-4.795459431E-1,-2.554303533E-1,1.423870923E0
9.239189208E0,-1.285707705E0,-4.743740809E-1,-2.066955650E-1,1.385928615E0
9.249250208E0,-1.209638353E0,-4.973852134E-1,-1.822910410E-1,1.320547999E0
9.259311208E0,-1.182175881E0,-5.021191192E-1,-1.727442920E-1,1.295956795E0
9.269371208E0,-1.215969279E0,-4.524680722E-1,-1.442894018E-1,1.305422566E0
9.279432208E0,-1.238567891E0,-3.580647755E-1,-1.202327871E-1,1.294880970E0
9.289493208E0,-1.284735897E0,-2.345750892E-1,5.147888660E-3,1.305985566E0
9.299554208E0,-1.348045894E0,3.384426892E-2,1.070204186E-1,1.352710811E0
9.309614208E0,-1.302262780E0,2.313503498E-1,2.598005623E-1,1.347927174E0
9.319675208E0,-1.083220381E0,2.091110498E-1,5.158226538E-1,1.217853372E0
9.329736208E0,-6.856047463E-1,-2.327133358E-2,7.460719728E-1,1.013518037E0
9.339797208E0,-2.143731053E-1,-3.566193438E-1,9.217264241E-1,1.011292631E0
9.349857208E0,2.014146522E-1,-7.479708561E-1,1.060341103E0,1.313145658E0
9.359918208E0,4.453107879E-1,-9.965652296E-1,1.077928943E0,1.534071302E0
9.369979208E0,5.447853747E-1,-1.082732431E0,9.724504352E-1,1.553949957E0
9.380039208E0,4.402491456E-1,-9.912352002E-1,8.572795826E-1,1.382495864E0
9.390100208E0,2.440284289E-1,-7.316463071E-1,7.541756290E-1,1.078720108E0
9.400161208E0,4.144915760E-2,-4.229305699E-1,7.249763882E-1,8.403446097E-1
9.410222208E0,3.772565067E-2,-1.341912603E-1,7.424683338E-1,7.554401008E-1
9.420282208E0,2.096222426E-1,3.810162663E-2,8.126290745E-1,8.400947751E-1
9.430343208E0,4.481121889E-1,9.573002994E-2,9.311030191E-1,1.037748334E0
9.440404208E0,8.332640447E-1,5.292314887E-3,1.001945545E0,1.303169924E0
9.450464208E0,1.138292674E0,-1.580622259E-1,1.070094844E0,1.570285596E0
9.460525208E0,1.356772279E0,-3.382000297E-1,1.089712252E0,1.772761425E0
9.470586208E0,1.542573257E0,-5.259552938E-1,1.059627158E0,1.943957545E0
9.480647208E0,1.575179232E0,-6.409390354E-1,1.049919026E0,1.998580101E0
9.490707208E0,1.561725666E0,-6.357914391E-1,9.119405240E-1,1.916990696E0
9.500768208E0,1.457302288E0,-5.905450997E-1,8.383930761E-1,1.781958592E0
9.510829208E0,1.372552890E0,-5.074567500E-1,7.261054856E-1,1.633598166E0
9.520889208E0,1.345385557E0,-3.839805123E-1,5.363136363E-1,1.498377672E0
9.530950208E0,1.317591548E0,-2.945219135E-1,4.224753642E-1,1.414664653E0
9.541011208E0,1.285919082E0,-1.457675779E-1,2.221304601E-1,1.313079591E0
9.551072208E0,1.317547548E0,-2.990587682E-2,6.335984409E-2,1.319409100E0
9.561132208E0,1.284797001E0,2.757429957E-2,-4.747939110E-4,1.285092954E0
9.571193208E0,1.282255801E0,3.994116068E-2,-9.161534429E-2,1.286144862E0
9.581254208E0,1.262371321E0,-3.054643929E-2,-1.345882863E-1,1.269893084E0
9.591314208E0,1.187795494E0,-1.308761814E-1,-1.924488240E-1,1.210381452E0
9.601375208E0,1.214008123E0,-2.571549895E-1,-3.004141527E-1,1.276790145E0
9.611436208E0,1.259340855E0,-4.069501296E-1,-3.422059572E-1,1.366986728E0
9.621497208E0,1.347282979E0,-4.926869756E-1,-4.172479534E-1,1.493990540E0
9.631556792E0,1.428935983E0,-5.391308248E-1,-4.675872177E-1,1.597234452E0
9.641617792E0,1.488787936E0,-5.552913594E-1,-4.886383635E-1,1.662409535E0
9.651678792E0,1.604601398E0,-5.446412408E-1,-5.704976285E-1,1.787972950E0
9.661738792E0,1.675824724E0,-4.331862938E-1,-7.005338573E-1,1.867293912E0
9.671799792E0,1.790716956E0,-3.685269061E-1,-8.115409076E-1,2.000269468E0
9.681860792E0,1.798953491E0,-2.241471648E-1,-9.304545629E-1,2.037700004E0
9.691921792E0,1.777050990E0,-1.421557528E-1,-1.009696029E0,2.048805640E0
9.701981792E0,1.791621667E0,-4.180876136E-2,-1.197726113E0,2.155505512E0
9.712042792E0,1.789458051E0,6.091278434E-2,-1.313362988E0,2.220538858E0
9.722103792E0,1.654654441E0,2.107590875E-1,-1.388433636E0,2.170264655E0
9.732163792E0,1.608430155E0,3.689821118E-1,-1.539174855E0,2.256602445E0
9.742224792E0,1.499999826E0,5.423938635E-1,-1.723825833E0,2.348566815E0
9.752285792E0,1.300388601E0,7.421537536E-1,-1.801094449E0,2.342166502E0
9.762346792E0,1.098441268E0,8.865045512E-1,-1.920782860E0,2.383667412E0
9.772406792E0,9.186271074E-1,1.002836953E0,-2.009162940E0,2.426168468E0
9.782467792E0,8.233495058E-1,1.059915133E0,-2.050886332E0,2.451011882E0
9.792528792E0,7.233340515E-1,1.133313477E0,-2.054381797E0,2.455218149E0
9.802589792E0,6.981202729E-1,1.222139407E0,-2.001816498E0,2.447093365E0
9.812649792E0,6.826185733E-1,1.317109592E0,-1.910552571E0,2.418875136E0
9.822710792E0,6.135378134E-1,1.371745975E0,-1.721256566E0,2.284915717E0
9.832771792E0,7.012356694E-1,1.328378638E0,-1.557657319E0,2.163935672E0
9.842831792E0,7.868408069E-1,1.265983000E0,-1.436552128E0,2.070148165E0
9.852892792E0,8.186859128E-1,1.261305227E0,-1.303972360E0,1.990347059E0
9.862953792E0,8.679159603E-1,1.274489529E0,-1.196513400E0,1.951728975E0
9.873014792E0,8.915482132E-1,1.305118414E0,-1.150053763E0,1.954690756E0
9.883074792E0,8.289498228E-1,1.381285999E0,-1.100175844E0,1.950767979E0
9.893135792E0,7.583962955E-1,1.450040192E0,-1.075429258E0,1.958144425E0
9.903196792E0,6.766593835E-1,1.503566481E0,-9.967356759E-1,1.926671247E0
9.913256792E0,6.117422797E-1,1.541827152E0,-9.126480371E-1,1.893247481E0
9.923317792E0,5.941845529E-1,1.604796110E0,-9.229420602E-1,1.944285957E0
9.933378792E0,5.940202461E-1,1.584296357E0,-9.117797256E-1,1.922029466E0
9.943439792E0,5.723362854E-1,1.562910750E0,-9.459736580E-1,1.914451618E0
9.953499792E0,5.566042055E-1,1.583564578E0,-1.030655959E0,1.969704729E0
9.963560792E0,5.516177000E-1,1.601290704E0,-1.141806266E0,2.042580612E0
9.973621792E0,5.370933625E-1,1.604134498E0,-1.230708502E0,2.091975187E0
9.983681792E0,5.565746771E-1,1.606808137E0,-1.295152420E0,2.137528374E0
9.993742792E0,6.038020532E-1,1.634651408E0,-1.291237124E0,2.168860405E0
1.000380379E1,6.374982414E-1,1.727088579E0,-1.276241355E0,2.240096195E0
1.001386479E1,6.925186403E-1,1.824495590E0,-1.299650098E0,2.344665563E0
1.002392479E1,6.507325369E-1,1.949072566E0,-1.215408677E0,2.387374071E0
1.003398579E1,5.352772173E-1,2.156067801E0,-1.090456603E0,2.474721331E0
1.004404679E1,3.854752068E-1,2.342566206E0,-9.834051937E-1,2.569687401E0
1.005410679E1,2.629048491E-1,2.421291364E0,-7.817943674E-1,2.557923623E0
1.006416779E1,1.135388398E-1,2.465574667E0,-5.600515777E-1,2.530930120E0
1.007422879E1,9.242781490E-2,2.372984299E0,-3.023197603E-1,2.393949586E0
1.008428979E1,1.669657812E-2,2.339626811E0,3.608959973E-2,2.339964711E0
1.009434979E1,-5.981955601E-2,2.390618040E0,3.643277282E-1,2.418960042E0
1.010441079E1,-1.282226419E-1,2.561160270E0,7.196957678E-1,2.663446071E0
1.011447179E1,-2.995675490E-1,2.788785359E0,1.153801829E0,3.032873745E0
1.012453179E1,-5.422848860E-1,3.087409094E0,1.589698892E0,3.514727639E0
1.013459279E1,-8.228056417E-1,3.284457046E0,2.051932399E0,3.959178422E0
1.014465379E1,-9.044943872E-1,3.175721931E0,2.555542558E0,4.175418260E0
1.015471479E1,-9.032748773E-1,2.864465871E0,3.109510692E0,4.323207950E0
1.016477479E1,-8.066137514E-1,2.533315829E0,3.677639614E0,4.537989419E0
1.017483579E1,-6.905868664E-1,2.201500082E0,4.158456157E0,4.755656678E0
1.018489679E1,-4.936640453E-1,1.749269699E0,4.485059988E0,4.839360678E0
1.019495679E1,-2.884583509E-1,1.269161546E0,4.625900118E0,4.805510498E0
1.020501779E1,-1.793830014E-1,8.771683019E-1,4.614553011E0,4.700606555E0
1.021507879E1,-1.991563113E-1,5.595145109E-1,4.520367231E0,4.559214804E0
1.022513979E1,-3.180259663E-1,3.607638502E-1,4.249193834E0,4.276323106E0
1.023519979E1,-6.382099206E-1,3.942698577E-1,3.887424263E0,3.959144860E0
1.024526079E1,-1.112853997E0,5.673725840E-1,3.367686313E0,3.591889026E0
1.025532179E1,-1.600535244E0,7.931245172E-1,2.729778475E0,3.262276826E0
1.026538179E1,-2.031239249E0,1.022527744E0,2.126139413E0,3.113192039E0
1.027544279E1,-2.355609005E0,1.173010224E0,1.632044427E0,3.096516718E0
1.028550379E1,-2.554923922E0,1.257178555E0,1.232455650E0,3.102753793E0
1.029556479E1,-2.565380206E0,1.222526493E0,8.545103413E-1,2.967479494E0
1.030562479E1,-2.396223034E0,1.029408748E0,6.004160768E-1,2.676203779E0
1.031568579E1,-2.153066864E0,7.174846432E-1,3.935450953E-1,2.303336466E0
1.032574679E1,-1.875914689E0,4.755055171E-1,1.521977609E-1,1.941217550E0
1.033580679E1,-1.551286632E0,1.653297302E-1,-8.314799130E-2,1.562286056E0
1.034586779E1,-1.321038921E0,-7.514403015E-2,-3.496319211E-1,1.368587935E0
1.035592879E1,-1.124868490E0,-2.611670566E-1,-6.269355386E-1,1.313996012E0
1.036598979E1,-9.438286069E-1,-4.685970318E-1,-9.326437604E-1,1.407202900E0
1.037604979E1,-7.535966085E-1,-6.768535110E-1,-1.253588072E0,1.611682840E0
1.038611079E1,-6.321176335E-1,-9.105184811E-1,-1.585539767E0,1.934567900E0
1.039617179E1,-5.314018290E-1,-1.200440390E0,-1.868730946E0,2.283768899E0
1.040623179E1,-4.604201393E-1,-1.441520799E0,-2.284358051E0,2.740120550E0
1.041629279E1,-4.456211288E-1,-1.573495672E0,-2.640268713E0,3.105718226E0
1.042635379E1,-4.072515535E-1,-1.635314775E0,-3.050253255E0,3.484846218E0
1.043641479E1,-3.635258556E-1,-1.667267470E0,-3.412318110E0,3.815212543E0
1.044647479E1,-3.408302535E-1,-1.640169426E0,-3.711586794E0,4.072124450E0
1.045653579E1,-3.080085164E-1,-1.597775943E0,-3.911518884E0,4.236476979E0
1.046659679E1,-2.510339049E-1,-1.575471447E0,-4.101983748E0,4.401295147E0
1.047665679E1,-2.327468842E-1,-1.448330174E0,-4.194566222E0,4.443671589E0
1.048671779E1,-1.833938259E-1,-1.403985475E0,-4.252843666E0,4.482352927E0
1.049677879E1,-8.717014477E-2,-1.314776553E0,-4.294716162E0,4.492307083E0
1.050683979E1,-2.445787981E-2,-1.252669474E0,-4.213821103E0,4.396142319E0
1.051689979E1,3.615348056E-2,-1.182764257E0,-4.133119587E0,4.299176186E0
1.052696079E1,4.622048557E-2,-1.051732540E0,-4.047043310E0,4.181726584E0
1.053702179E1,-1.274839193E-3,-8.988196644E-1,-3.911131214E0,4.013081832E0
1.054708179E1,-8.714719445E-2,-7.192019704E-1,-3.709135056E0,3.779223329E0
1.055714279E1,-1.500853081E-1,-5.086568910E-1,-3.433331834E0,3.474050218E0
1.056720379E1,-1.742359167E-1,-2.885618466E-1,-3.059286618E0,3.077801278E0
1.057726479E1,-1.721436368E-1,-8.975856096E-2,-2.700457612E0,2.707427071E0
1.058732479E1,-1.695474730E-1,4.727035314E-2,-2.225326901E0,2.232277010E0
1.059738579E1,-1.974843000E-1,2.099352148E-1,-1.740719023E0,1.764419327E0
1.060744679E1,-3.243957768E-1,4.462331861E-1,-1.281714934E0,1.395403113E0
1.061750679E1,-4.689880644E-1,6.988881585E-1,-7.725820792E-1,1.142487432E0
1.062756779E1,-5.724102527E-1,9.318043926E-1,-1.998385352E-1,1.111687170E0
1.063762867E1,-7.566370144E-1,1.263306144E0,4.053441918E-1,1.527332937E0
1.064768967E1,-8.209560943E-1,1.639638791E0,9.694075441E-1,2.074158928E0
1.065774967E1,-9.224346681E-1,2.109833867E0,1.486523017E0,2.740809250E0
1.066781067E1,-9.701884398E-1,2.442941849E0,2.072662532E0,3.347411008E0
1.067787167E1,-8.177518201E-1,2.634341975E0,2.549223472E0,3.755930775E0
1.068793167E1,-6.583219305E-1,2.824760646E0,3.092991139E0,4.240195120E0
1.069799267E1,-5.342450376E-1,3.180893209E0,3.634066163E0,4.859005684E0
1.070805367E1,-3.656499298E-1,3.342922478E0,4.215022706E0,5.392146787E0
1.071811467E1,-1.099295181E-1,3.244696564E0,4.783750382E0,5.781384610E0
1.072817467E1,3.456167112E-1,2.909175729E0,5.209067493E0,5.976381721E0
1.073823567E1,9.118339585E-1,2.412602693E0,5.477251793E0,6.054120921E0
1.074829667E1,1.252019995E0,2.200017813E0,5.539735724E0,6.090673554E0
1.075835667E1,1.435435894E0,2.084151142E0,5.448099915E0,6.007158635E0
1.076841767E1,1.592756108E0,1.729727720E0,5.269029520E0,5.769878863E0
1.077847867E1,1.459668218E0,1.502183323E0,5.003855951E0,5.424551633E0
1.078853967E1,1.091156587E0,1.488138311E0,4.635990073E0,4.989747718E0
1.079859967E1,7.544105409E-1,1.304802372E0,4.344374226E0,4.598394492E0
1.080866067E1,5.818934863E-1,1.012955267E0,4.072127280E0,4.236378051E0
1.081872167E1,5.141473534E-1,6.749724618E-1,3.827955156E0,3.920864191E0
1.082878167E1,5.780573474E-1,2.925823921E-1,3.580686346E0,3.638828034E0
1.083884267E1,7.975055435E-1,-1.019795340E-1,3.222243841E0,3.321034520E0
1.084890367E1,9.703068459E-1,-4.600381699E-1,2.754045589E0,2.955993505E0
1.085896367E1,1.082888844E0,-7.516882235E-1,2.161595174E0,2.531832761E0
1.086902467E1,1.136805435E0,-9.136964428E-1,1.360516689E0,1.994535898E0
1.087908567E1,1.054877757E0,-9.730319408E-1,5.556421924E-1,1.538927057E0
1.088914667E1,9.577521430E-1,-9.349367461E-1,-2.771726400E-1,1.366828650E0
1.089920667E1,9.193933851E-1,-9.533069435E-1,-1.015844377E0,1.669136939E0
1.090926767E1,9.070351486E-1,-1.146491932E0,-1.418808752E0,2.037197778E0
1.091932867E1,8.344888902E-1,-1.251592710E0,-1.780297657E0,2.330732882E0
1.092938867E1,6.995553258E-1,-1.234479371E0,-2.121293825E0,2.552098051E0
1.093944967E1,6.114019717E-1,-1.246008911E0,-2.446439946E0,2.812724477E0
1.094951067E1,5.318427090E-1,-1.232472607E0,-2.780881970E0,3.087903808E0
1.095957167E1,4.718004289E-1,-1.224109919E0,-3.119886577E0,3.384484154E0
1.096963167E1,3.837163644E-1,-1.234484634E0,-3.434124717E0,3.669387296E0
1.097969267E1,3.662473691E-1,-1.216645948E0,-3.746252596E0,3.955853007E0
1.098975367E1,4.009997106E-1,-1.247164029E0,-4.096766862E0,4.301129806E0
1.099981367E1,3.519278303E-1,-1.306443393E0,-4.278646844E0,4.487478842E0
1.100987467E1,3.801711975E-1,-1.382895153E0,-4.473527525E0,4.697805622E0
1.101993567E1,3.870701811E-1,-1.389350187E0,-4.607170901E0,4.827643419E0
1.102999667E1,3.874233529E-1,-1.353114407E0,-4.753634883E0,4.957626453E0
1.104005667E1,4.074098669E-1,-1.307852280E0,-4.824626513E0,5.015324653E0
1.105011767E1,4.195431317E-1,-1.245969150E0,-4.873330311E0,5.047554247E0
1.106017867E1,4.446615276E-1,-1.188617028E0,-4.917646358E0,5.078757724E0
1.107023867E1,4.065262795E-1,-1.120818270E0,-4.888892675E0,5.032173367E0
1.108029967E1,3.033377240E-1,-9.513516346E-1,-4.918488942E0,5.018826275E0
1.109036067E1,2.587506216E-1,-8.666266492E-1,-4.840216944E0,4.923991642E0
1.110042167E1,2.297627576E-1,-6.518394148E-1,-4.818659429E0,4.867973320E0
1.111048167E1,1.440546361E-1,-5.851735550E-1,-4.574323583E0,4.613850460E0
1.112054267E1,9.671923265E-2,-2.219012493E-1,-4.430860392E0,4.437467588E0
1.113060367E1,-3.733125597E-2,1.339076704E-1,-4.119464584E0,4.121809475E0
1.114066367E1,-2.241339720E-1,5.447292414E-1,-3.698664447E0,3.745274980E0
1.115072467E1,-3.403319976E-1,9.114493579E-1,-3.097394092E0,3.246600678E0
1.116078567E1,-3.266084363E-1,1.133999356E0,-2.422987933E0,2.695087778E0
1.117084567E1,-2.577752329E-1,1.193566403E0,-1.670793926E0,2.069444653E0
1.118090667E1,-2.601462789E-1,1.096410822E0,-7.513578558E-1,1.354374913E0
1.119096767E1,-2.059979922E-1,9.656811136E-1,1.384819472E-1,9.970719310E-1
1.120102867E1,-2.124116568E-1,9.908478221E-1,1.026355332E0,1.442325686E0
1.121108867E1,-3.082515413E-1,1.184313185E0,1.843414841E0,2.212644348E0
1.122114967E1,-3.202783503E-1,1.494567617E0,2.603709581E0,3.019207540E0
1.123121067E1,-1.299846272E-1,1.693872009E0,3.348515632E0,3.754817615E0
1.124127067E1,1.324103446E-1,1.919090383E0,4.101497844E0,4.530201427E0
1.125133167E1,4.482672863E-1,2.131037625E0,4.774086104E0,5.247300549E0
1.126139267E1,7.105787160E-1,2.407876389E0,5.262968881E0,5.831091858E0
1.127145367E1,6.395791192E-1,3.035769702E0,5.562297791E0,6.368996455E0
1.128151367E1,4.495123778E-1,3.867912396E0,5.742765085E0,6.938455052E0
1.129157467E1,1.023872311E-1,4.646978745E0,5.842670612E0,7.466036062E0
1.130163567E1,-5.838547155E-2,4.737442773E0,6.046211019E0,7.681369707E0
1.131169567E1,1.797799543E-3,4.188212053E0,6.163533062E0,7.451863072E0
1.132175667E1,8.438438505E-2,3.434057474E0,6.258083709E0,7.138871281E0
1.133181767E1,3.667268773E-1,2.253590880E0,6.179508825E0,6.587828912E0
1.134187867E1,5.550487000E-1,1.130062425E0,5.798839883E0,5.933941703E0
1.135193867E1,4.495583515E-1,3.208016396E-1,5.331759619E0,5.360287030E0
1.136199967E1,3.764850031E-1,-2.692227656E-1,4.799833733E0,4.822097648E0
1.137206067E1,2.867282329E-1,-6.227384073E-1,4.241362658E0,4.296414017E0
1.138212067E1,2.405368007E-1,-7.998377055E-1,3.675133497E0,3.768846578E0
1.139218167E1,1.177899666E-1,-8.292603099E-1,3.137751575E0,3.247619448E0
1.140224267E1,-1.147206169E-1,-7.892940062E-1,2.562794859E0,2.684038625E0
1.141230267E1,-3.679376164E-1,-8.101600876E-1,1.983703578E0,2.174124500E0
1.142236367E1,-5.701917825E-1,-8.740868193E-1,1.486556931E0,1.816314385E0
1.143242467E1,-6.345725870E-1,-9.425325716E-1,9.523477077E-1,1.482570799E0
1.144248567E1,-6.219453786E-1,-1.052334511E0,4.456385243E-1,1.301083268E0
1.145254567E1,-5.866635717E-1,-1.214064403E0,-1.736821854E-1,1.359519041E0
1.146260667E1,-5.841423985E-1,-1.505414494E0,-6.659779823E-1,1.746717439E0
1.147266767E1,-5.700572966E-1,-1.725541113E0,-1.313526126E0,2.242277489E0
1.148272767E1,-6.219595581E-1,-2.000414043E0,-1.851369393E0,2.795721493E0
1.149278867E1,-6.440414219E-1,-2.223178342E0,-2.427368667E0,3.354016985E0
1.150284967E1,-7.654926226E-1,-2.350571044E0,-2.891142915E0,3.803928305E0
1.151290967E1,-8.377339487E-1,-2.500290755E0,-3.326763405E0,4.245068525E0
1.152297067E1,-8.528120906E-1,-2.548107238E0,-3.758458659E0,4.620189439E0
1.153303167E1,-8.905207112E-1,-2.602211525E0,-4.103764225E0,4.940183476E0
1.154309267E1,-9.223355578E-1,-2.648866751E0,-4.363264241E0,5.187029283E0
1.155315267E1,-8.745031410E-1,-2.686645904E0,-4.496712905E0,5.310673112E0
1.156321367E1,-8.477966414E-1,-2.651247152E0,-4.623279980E0,5.396534850E0
1.157327467E1,-7.900149679E-1,-2.696335909E0,-4.540426689E0,5.339459289E0
1.158333467E1,-6.997890683E-1,-2.609993292E0,-4.533819335E0,5.278000330E0
1.159339567E1,-6.314368714E-1,-2.512007406E0,-4.385280177E0,5.093091003E0
1.160345667E1,-5.018312900E-1,-2.406684142E0,-4.222620578E0,4.886152653E0
1.161351767E1,-4.218596524E-1,-2.236118522E0,-4.011884587E0,4.612310652E0
1.162357767E1,-3.742841842E-1,-2.006246056E0,-3.789842420E0,4.304418364E0
1.163363867E1,-3.635677363E-1,-1.757183321E0,-3.568056945E0,3.993858421E0
1.164369967E1,-3.940663746E-1,-1.459162726E0,-3.315339700E0,3.643613796E0
1.165375967E1,-3.852649994E-1,-1.144298057E0,-3.058269203E0,3.287986873E0
1.166382067E1,-3.913459575E-1,-7.438020837E-1,-2.761082713E0,2.886168905E0
1.167388167E1,-3.803992389E-1,-3.288237271E-1,-2.405495988E0,2.457486433E0
1.168394167E1,-4.234050715E-1,3.769261390E-2,-2.018247174E0,2.062526180E0
1.169400267E1,-5.493619904E-1,4.329950899E-1,-1.613332753E0,1.758444175E0
1.170406367E1,-5.978028099E-1,6.966220701E-1,-1.250051091E0,1.550895947E0
1.171412467E1,-6.264303392E-1,9.110362521E-1,-8.720584202E-1,1.408150528E0
1.172418467E1,-6.407947554E-1,1.119768110E0,-4.816983032E-1,1.377146250E0
1.173424567E1,-5.493616980E-1,1.211200729E0,-6.975026608E-2,1.331792244E0
1.174430667E1,-4.487235153E-1,1.213917637E0,4.139898849E-1,1.358799635E0
1.175436667E1,-4.142063780E-1,1.242671028E0,9.497182149E-1,1.617950214E0
1.176442767E1,-4.548686466E-1,1.416022261E0,1.388572800E0,2.034738054E0
1.177448867E1,-6.320490749E-1,1.673922478E0,1.833395637E0,2.561804454E0
1.178454967E1,-7.901491615E-1,1.885332069E0,2.206439225E0,3.007854179E0
1.179460967E1,-7.625295460E-1,1.990257137E0,2.525742223E0,3.304837146E0
1.180467067E1,-6.025630282E-1,2.077083027E0,2.870772970E0,3.594258415E0
1.181473167E1,-3.163434300E-1,2.143387822E0,3.220513065E0,3.881480249E0
1.182479167E1,8.019690156E-2,2.171450071E0,3.588627450E0,4.195220367E0
1.183485267E1,3.223429656E-1,2.291246071E0,4.007431347E0,4.627442010E0
1.184491367E1,4.660248417E-1,2.564785252E0,4.358538521E0,5.078598289E0
1.185497367E1,7.599978478E-1,2.431605267E0,4.741965010E0,5.382985515E0
1.186503467E1,1.158986847E0,2.003235033E0,4.986027206E0,5.496969020E0
1.187509567E1,1.227353808E0,1.975236517E0,5.124184633E0,5.627186226E0
1.188515667E1,1.303341884E0,1.806796946E0,5.077930233E0,5.545141182E0
1.189521667E1,1.446353230E0,1.335371031E0,4.801470369E0,5.189342074E0
1.190527767E1,1.229363350E0,1.047450916E0,4.420837680E0,4.706622299E0
1.191533867E1,6.705545980E-1,8.166148290E-1,4.105976812E0,4.239758109E0
1.192539867E1,2.065379825E-1,4.845938444E-1,3.700261906E0,3.737569706E0
1.193545967E1,-2.015922613E-1,1.999861774E-1,3.385379403E0,3.397267669E0
1.194552067E1,-4.536879475E-1,-8.700656891E-2,3.274991573E0,3.307411783E0
1.195558067E1,-3.440798436E-1,-4.251706383E-1,3.099186264E0,3.147080632E0
1.196564167E1,-1.811617244E-2,-6.737863541E-1,2.925868945E0,3.002503177E0
1.197570267E1,3.420703018E-1,-7.619921869E-1,2.804549745E0,2.926284924E0
1.198576367E1,6.142539512E-1,-7.995076302E-1,2.574820243E0,2.765179859E0
1.199582367E1,7.428508879E-1,-8.088190287E-1,2.162732458E0,2.425577734E0
1.200588467E1,7.107441191E-1,-7.162491265E-1,1.563733161E0,1.861029665E0
1.201594567E1,6.073802568E-1,-6.784465849E-1,9.351071924E-1,1.305230250E0
1.202600567E1,4.712329566E-1,-6.137687784E-1,2.204973328E-1,8.046065415E-1
1.203606667E1,3.448170313E-1,-5.468137738E-1,-5.368170816E-1,8.402836827E-1
1.204612767E1,2.011918733E-1,-5.052023560E-1,-1.294061329E0,1.403674576E0
1.205618867E1,3.175271988E-2,-5.338250613E-1,-1.962185240E0,2.033752282E0
1.206624867E1,-1.177607305E-1,-6.298106146E-1,-2.530912331E0,2.610755873E0
1.207630967E1,-1.954715422E-1,-7.832468158E-1,-3.070823759E0,3.175160352E0
1.208637067E1,-1.948274714E-1,-9.373753273E-1,-3.455743627E0,3.585916098E0
1.209643067E1,-1.108651091E-1,-1.090487593E0,-3.756775246E0,3.913414687E0
1.210649167E1,-1.761035174E-2,-1.208247885E0,-3.977317602E0,4.156829126E0
1.211655267E1,6.782053873E-2,-1.291280394E0,-4.184396160E0,4.379631937E0
1.212661267E1,9.425916284E-2,-1.324975851E0,-4.364106824E0,4.561784099E0
1.213667367E1,8.432430491E-2,-1.360217897E0,-4.459109461E0,4.662720289E0
1.214673467E1,6.208530639E-2,-1.371491913E0,-4.518008464E0,4.721995885E0
1.215679567E1,6.093529612E-2,-1.391878523E0,-4.559979778E0,4.768066118E0
1.216685567E1,4.367257962E-2,-1.343019774E0,-4.566516380E0,4.760113576E0
1.217691667E1,5.588960582E-2,-1.296806305E0,-4.574017773E0,4.754626045E0
1.218697767E1,6.600293174E-2,-1.237854677E0,-4.515747930E0,4.682800440E0
1.219703767E1,3.822237164E-2,-1.146191970E0,-4.428289956E0,4.574381807E0
1.220709867E1,1.927885473E-2,-1.132168885E0,-4.312654835E0,4.458830540E0
1.221715967E1,2.916022891E-2,-1.123025886E0,-4.167259140E0,4.316026668E0
1.222721967E1,2.403205633E-3,-1.072437530E0,-3.945490038E0,4.088645212E0
1.223728067E1,-1.041944593E-2,-9.947829983E-1,-3.714899241E0,3.845800067E0
1.224734167E1,-1.771238565E-2,-8.975715762E-1,-3.376569403E0,3.493875985E0
1.225740267E1,-2.520588487E-3,-7.482819280E-1,-2.971948512E0,3.064703926E0
1.226746267E1,1.546530068E-2,-5.356739509E-1,-2.519099202E0,2.575470160E0
1.227752367E1,6.198253244E-2,-2.912457186E-1,-1.996859229E0,2.018938504E0
1.228758467E1,1.874820529E-1,-1.199872041E-1,-1.425283958E0,1.442560505E0
1.229764467E1,3.072891627E-1,-2.316959202E-2,-8.084617639E-1,8.652016431E-1
1.230770567E1,3.289640602E-1,1.515007728E-1,-1.877464932E-1,4.079443379E-1
1.231776667E1,3.032323645E-1,3.295587221E-1,3.942368209E-1,5.966418433E-1
1.232782667E1,2.120780732E-1,5.374292850E-1,9.228718936E-1,1.088806630E0
1.233788767E1,1.674356232E-1,7.463292503E-1,1.337153555E0,1.540461511E0
1.234794867E1,2.486540151E-1,8.840142220E-1,1.779403617E0,2.002395365E0
1.235800967E1,4.510021752E-1,9.748580262E-1,2.228871483E0,2.474190620E0
1.236806967E1,5.863627325E-1,1.221553516E0,2.597372369E0,2.929566089E0
1.237813067E1,7.275468242E-1,1.614899806E0,2.799424660E0,3.312703457E0
1.238819167E1,7.580922402E-1,2.016286018E0,2.954073574E0,3.656044834E0
1.239825167E1,6.232772282E-1,2.455640247E0,3.030626491E0,3.950106385E0
1.240831267E1,4.495757470E-1,2.719443813E0,3.068971362E0,4.125054936E0
1.241837367E1,1.072519684E-1,3.058654242E0,3.015920159E0,4.296817795E0
1.242843467E1,-5.023712803E-1,3.698553642E0,3.048856940E0,4.819461027E0
1.243849467E1,-9.616801563E-1,4.171482292E0,3.278301682E0,5.391971360E0
1.244855567E1,-7.962555550E-1,3.767437351E0,3.441098691E0,5.164181184E0
1.245861667E1,-6.563480566E-1,3.217495317E0,3.590986801E0,4.866030733E0
1.246867667E1,-7.948183094E-1,2.673311913E0,3.827754012E0,4.736035632E0
1.247873767E1,-7.637125839E-1,1.704435004E0,3.959738533E0,4.378114302E0
1.248879867E1,-7.214731751E-1,6.573875454E-1,3.967005453E0,4.085316902E0
1.249885867E1,-8.719100471E-1,-4.821847916E-2,3.945932087E0,4.041402255E0
1.250891967E1,-9.611458670E-1,-5.201952016E-1,3.914677550E0,4.064370154E0
1.251898067E1,-9.116464090E-1,-8.030940199E-1,3.827564562E0,4.015757669E0
1.252904167E1,-8.301271597E-1,-9.617783895E-1,3.796472577E0,4.003415142E0
1.253910167E1,-7.662162155E-1,-1.020186519E0,3.752651204E0,3.963616894E0
1.254916267E1,-6.835738622E-1,-1.075552342E0,3.659096923E0,3.874671129E0
1.255922367E1,-5.795562811E-1,-1.127974092E0,3.567747043E0,3.786427075E0
1.256928367E1,-4.081816994E-1,-1.139939834E0,3.342442714E0,3.554996262E0
1.257934467E1,-1.527146548E-1,-1.200508218E0,2.985597083E0,3.221541819E0
1.258940567E1,1.577340509E-1,-1.400588535E0,2.540333365E0,2.905137154E0
1.259946567E1,5.346813861E-1,-1.720636761E0,2.009821336E0,2.699232641E0
1.260952667E1,8.620437478E-1,-2.010056102E0,1.412917682E0,2.603801323E0
1.261958767E1,1.139474688E0,-2.276660777E0,7.654426289E-1,2.658474991E0
1.262964867E1,1.255022979E0,-2.486760006E0,1.161806667E-1,2.787930407E0
1.263970804E1,1.232465298E0,-2.591289511E0,-6.100821090E-1,2.933590329E0
1.264976904E1,1.062853359E0,-2.596511074E0,-1.431512997E0,3.149723239E0
1.265983004E1,7.695865506E-1,-2.516435502E0,-2.121770958E0,3.380328844E0
1.266989004E1,5.227787939E-1,-2.377966419E0,-2.727744813E0,3.656311491E0
1.267995104E1,3.034438875E-1,-2.172315459E0,-3.275337144E0,3.941936840E0
1.269001204E1,1.106394066E-1,-2.040062843E0,-3.648471363E0,4.181559610E0
1.270007204E1,1.664468408E-2,-1.903067843E0,-4.020993379E0,4.448632601E0
1.271013304E1,-4.304983288E-2,-1.795304828E0,-4.242456087E0,4.606886841E0
1.272019404E1,-1.023894238E-1,-1.703570493E0,-4.375255710E0,4.696328199E0
1.273025504E1,-7.417836249E-2,-1.592746753E0,-4.448973312E0,4.726066883E0
1.274031504E1,-6.120249560E-2,-1.536574306E0,-4.405341389E0,4.666030336E0
1.275037604E1,-8.816139400E-4,-1.453537120E0,-4.339435667E0,4.576403921E0
1.276043704E1,1.694130236E-2,-1.409917183E0,-4.185996543E0,4.417094127E0
1.277049704E1,-3.672153756E-2,-1.322564459E0,-4.069570293E0,4.279243810E0
1.278055804E1,-1.333868296E-1,-1.205894673E0,-3.919002151E0,4.102505560E0
1.279061904E1,-2.822389600E-1,-1.026671666E0,-3.718929142E0,3.868352040E0
1.280067904E1,-4.468562070E-1,-7.191487607E-1,-3.530737091E0,3.630834590E0
1.281074004E1,-5.679289466E-1,-3.566263604E-1,-3.275854037E0,3.343792057E0
1.282080104E1,-6.719580759E-1,-2.596456110E-2,-2.997973884E0,3.072466310E0
1.283086204E1,-6.983825205E-1,2.145331728E-1,-2.664856254E0,2.763190454E0
1.284092204E1,-6.314666922E-1,3.516495028E-1,-2.316399039E0,2.426543234E0
1.285098304E1,-4.923799968E-1,4.203145257E-1,-1.942929774E0,2.047944938E0
1.286104404E1,-3.697106749E-1,4.512094590E-1,-1.444058198E0,1.557427378E0
1.287110404E1,-2.470631339E-1,4.421784344E-1,-9.156353796E-1,1.046398637E0
1.288116504E1,-1.220903014E-1,5.012449604E-1,-4.148546880E-1,6.620097916E-1
1.289122604E1,-1.056315587E-1,5.917282838E-1,1.258291572E-1,6.141118504E-1
1.290128604E1,-1.675060639E-1,7.919413331E-1,5.412592113E-1,9.737509386E-1
1.291134704E1,-4.014432219E-1,1.196699342E0,8.887469584E-1,1.543734799E0
1.292140804E1,-7.392292687E-1,1.658909752E0,1.219363149E0,2.187530107E0
1.293146904E1,-9.631323123E-1,1.955180275E0,1.580375506E0,2.692199937E0
1.294152904E1,-1.021390022E0,2.102281896E0,1.995651779E0,3.073345533E0
1.295159004E1,-9.045350254E-1,2.141740076E0,2.401524559E0,3.342537116E0
1.296165104E1,-6.227289055E-1,1.999679633E0,2.830232470E0,3.520898431E0
1.297171104E1,-2.545491779E-1,1.836757202E0,3.154088695E0,3.658790483E0
1.298177204E1,-1.727004379E-2,1.690080089E0,3.626384676E0,4.000916742E0
1.299183304E1,3.369971113E-1,1.774655386E0,3.856797132E0,4.258855822E0
1.300189304E1,5.494002897E-1,2.042396467E0,4.052941981E0,4.571603954E0
1.301195404E1,8.578925170E-1,2.094730509E0,4.238685803E0,4.805240141E0
1.302201504E1,1.218113161E0,1.997983648E0,4.306038710E0,4.900786438E0
1.303207604E1,1.262606233E0,2.134253594E0,4.353338007E0,5.010066338E0
1.304213604E1,1.321196211E0,2.001371817E0,4.246642694E0,4.876989107E0
1.305219704E1,1.384599763E0,1.455973654E0,3.961589177E0,4.441977554E0
1.306225804E1,1.190755062E0,1.000197812E0,3.649680567E0,3.967172989E0
1.307231804E1,7.737465522E-1,5.661551937E-1,3.464270037E0,3.594493333E0
1.308237904E1,3.039397314E-1,2.430488741E-1,3.263078456E0,3.286203452E0
1.309244004E1,-1.775611186E-1,-7.231836319E-3,3.106260225E0,3.111339396E0
1.310250004E1,-5.288626756E-1,-1.683927941E-1,3.030075683E0,3.080488680E0
1.311256104E1,-5.782177073E-1,-3.095434105E-1,2.972862432E0,3.044349500E0
1.312262204E1,-2.810347259E-1,-6.362688643E-1,2.982600385E0,3.062633449E0
1.313268204E1,1.986730389E-1,-9.810060811E-1,3.020263470E0,3.181797501E0
1.314274304E1,7.127821662E-1,-1.315838992E0,2.882289646E0,3.247627484E0
1.315280404E1,1.017600734E0,-1.527382191E0,2.500883955E0,3.102068369E0
1.316286504E1,1.192042473E0,-1.631728093E0,1.930858197E0,2.794944580E0
1.317292504E1,1.246948705E0,-1.609023355E0,1.200919862E0,2.363481699E0
1.318298604E1,1.219230125E0,-1.536993844E0,4.039806211E-1,2.003015855E0
1.319304704E1,1.173301270E0,-1.391875307E0,-3.369586658E-1,1.851349206E0
1.320310704E1,1.096792207E0,-1.217518061E0,-1.042445115E0,1.942162504E0
1.321316804E1,9.555646996E-1,-1.089937077E0,-1.599885911E0,2.158865826E0
1.322322904E1,8.186293410E-1,-9.458917969E-1,-2.179080103E0,2.512619228E0
1.323328904E1,6.526568556E-1,-8.435234231E-1,-2.675803412E0,2.880523674E0
1.324335004E1,4.709812340E-1,-7.905336159E-1,-3.133794179E0,3.266103592E0
1.325341104E1,3.700311023E-1,-7.596103236E-1,-3.536195467E0,3.635740536E0
1.326347204E1,3.073394488E-1,-8.070230564E-1,-3.770396335E0,3.868026922E0
1.327353204E1,2.458134377E-1,-8.049236137E-1,-3.963149214E0,4.051527855E0
1.328359304E1,2.187645105E-1,-7.598041588E-1,-4.207349989E0,4.280999206E0
1.329365404E1,1.506115575E-1,-7.366146863E-1,-4.342185613E0,4.406797129E0
1.330371404E1,9.540536329E-2,-7.313896143E-1,-4.468849753E0,4.529310219E0
1.331377504E1,5.555264175E-2,-7.327227795E-1,-4.500655682E0,4.560248934E0
1.332383604E1,-4.998506919E-2,-6.979151818E-1,-4.471096838E0,4.525515555E0
1.333389604E1,-1.731379193E-1,-6.485488942E-1,-4.424978678E0,4.475603726E0
1.334395704E1,-2.071436079E-1,-7.131790459E-1,-4.334968979E0,4.398123336E0
1.335401804E1,-2.096459238E-1,-8.399557444E-1,-4.153886558E0,4.243141596E0
1.336407804E1,-2.283283260E-1,-9.962538654E-1,-4.009858527E0,4.138069718E0
1.337413904E1,-2.181015824E-1,-1.075463757E0,-3.799806075E0,3.955087458E0
1.338420004E1,-2.205473265E-1,-1.052942913E0,-3.615382555E0,3.772044660E0
1.339426104E1,-2.084833512E-1,-9.358012569E-1,-3.465361127E0,3.595541273E0
1.340432104E1,-2.434099032E-1,-7.856049979E-1,-3.296131012E0,3.397190492E0
1.341438204E1,-1.775702915E-1,-5.883333904E-1,-3.104256969E0,3.164502918E0
1.342444304E1,-1.074876112E-1,-3.827207297E-1,-2.811991496E0,2.839951570E0
1.343450304E1,3.257337660E-3,-1.110050038E-1,-2.511016595E0,2.513471118E0
1.344456404E1,3.835948884E-2,1.494253036E-1,-2.145062757E0,2.150603078E0
1.345462504E1,6.181807950E-2,3.569380170E-1,-1.702726155E0,1.740833875E0
1.346468504E1,2.460248876E-2,6.405925879E-1,-1.251415247E0,1.406059837E0
1.347474604E1,-6.710849404E-2,8.539340982E-1,-6.835851181E-1,1.095899451E0
1.348480704E1,-2.238105114E-1,1.023823487E0,-4.939961672E-2,1.049164429E0
1.349486704E1,-3.956486312E-1,1.284002072E0,5.815699160E-1,1.464043281E0
1.350492804E1,-4.807102700E-1,1.488593516E0,1.274284292E0,2.017620747E0
1.351498904E1,-3.137899509E-1,1.532914826E0,2.024140583E0,2.558405186E0
1.352505004E1,9.513434485E-2,1.515275823E0,2.837034536E0,3.217743980E0
1.353511004E1,5.179669739E-1,1.599716926E0,3.691460093E0,4.056385293E0
1.354517104E1,8.280417502E-1,1.895564404E0,4.405777591E0,4.867205947E0
1.355523204E1,9.784523097E-1,2.409621491E0,4.865089830E0,5.516588049E0
1.356529204E1,8.533104926E-1,3.183622104E0,5.083678631E0,6.058661315E0
1.357535304E1,4.455258192E-1,4.119472478E0,5.175410335E0,6.629737467E0
1.358541404E1,7.415965140E-2,4.649677820E0,5.389785633E0,7.118622947E0
1.359547404E1,-1.084673122E-2,4.306499471E0,5.493895893E0,6.980612253E0
1.360553504E1,-1.358761355E-2,3.803555602E0,5.575206104E0,6.749084600E0
1.361559604E1,-9.140162855E-2,3.016714795E0,5.780993596E0,6.521411609E0
1.362565704E1,6.139722615E-3,1.940122818E0,5.730150887E0,6.049689532E0
1.363572129E1,-6.322877510E-3,6.813383254E-1,5.583217374E0,5.624640268E0
1.364578229E1,-1.189918618E-1,-3.206136516E-1,5.449133703E0,5.459854420E0
1.365584329E1,-1.382039121E-1,-8.541092223E-1,5.223763885E0,5.294932673E0
1.366590329E1,-4.252679944E-3,-1.251644165E0,4.950256864E0,5.106042913E0
1.367596429E1,2.797645645E-1,-1.539787644E0,4.568223767E0,4.828859346E0
1.368602529E1,3.246141703E-1,-1.525461380E0,4.086273449E0,4.373789831E0
1.369608529E1,1.899557175E-1,-1.345705692E0,3.424125978E0,3.683971457E0
1.370614629E1,-5.807366878E-2,-1.261481813E0,2.793338878E0,3.065526220E0
1.371620729E1,-2.798449637E-1,-1.222265123E0,2.185130217E0,2.519333106E0
1.372626729E1,-3.998311445E-1,-1.231678555E0,1.576216382E0,2.039939972E0
1.373632829E1,-4.065332231E-1,-1.307347957E0,9.036836708E-1,1.640448756E0
1.374638929E1,-3.604896158E-1,-1.485581031E0,2.373139250E-1,1.547004092E0
1.375645029E1,-2.778678739E-1,-1.736440031E0,-4.512565291E-1,1.815507365E0
1.376651029E1,-2.216315465E-1,-2.004980719E0,-1.133845282E0,2.314016713E0
1.377657129E1,-2.043169177E-1,-2.242646939E0,-1.813940197E0,2.891641356E0
1.378663229E1,-1.828582209E-1,-2.398046927E0,-2.476357809E0,3.452015961E0
1.379669229E1,-1.542464791E-1,-2.451790148E0,-3.084454789E0,3.943212935E0
1.380675329E1,-1.429468811E-1,-2.410753219E0,-3.655486268E0,4.381180748E0
1.381681429E1,-2.123799357E-1,-2.366446527E0,-4.133392652E0,4.767610430E0
1.382687429E1,-3.038296393E-1,-2.288899291E0,-4.501088961E0,5.058772010E0
1.383693529E1,-3.794791795E-1,-2.158565147E0,-4.802700039E0,5.279141559E0
1.384699629E1,-4.419903003E-1,-2.070271313E0,-5.031933696E0,5.459096579E0
1.385705629E1,-4.737745951E-1,-2.070016960E0,-5.083624252E0,5.509325559E0
1.386711729E1,-4.542421174E-1,-2.062947384E0,-5.130672119E0,5.548502879E0
1.387717829E1,-4.082283309E-1,-2.057153085E0,-5.043818747E0,5.462475331E0
1.388723829E1,-3.566006327E-1,-2.031390838E0,-4.880704819E0,5.298583988E0
1.389729929E1,-2.884871484E-1,-1.923955559E0,-4.703640604E0,5.090094769E0
1.390736029E1,-2.502653432E-1,-1.852582983E0,-4.414508654E0,4.794015343E0
1.391742129E1,-2.162402675E-1,-1.706612214E0,-4.152817102E0,4.495016684E0
1.392748129E1,-2.231034368E-1,-1.505538455E0,-3.884431658E0,4.171957632E0
1.393754229E1,-2.249406320E-1,-1.269060097E0,-3.572278050E0,3.797668006E0
1.394760329E1,-2.680587311E-1,-9.584659418E-1,-3.189798810E0,3.341456104E0
1.395766329E1,-3.741329241E-1,-6.190996850E-1,-2.736463596E0,2.830458069E0
1.396772429E1,-4.286111400E-1,-2.981390011E-1,-2.287413222E0,2.346242447E0
1.397778529E1,-5.244097285E-1,-2.084824741E-3,-1.766868356E0,1.843050108E0
1.398784529E1,-6.256026658E-1,2.994344518E-1,-1.286239509E0,1.461318501E0
1.399790629E1,-7.567143439E-1,5.711373138E-1,-7.993050241E-1,1.240041512E0
1.400796729E1,-8.287653431E-1,7.839841497E-1,-3.076570988E-1,1.181582004E0
1.401802729E1,-8.286624321E-1,8.933750296E-1,2.190355289E-1,1.238053687E0
1.402808829E1,-8.102505733E-1,9.675723955E-1,7.509625840E-1,1.468552735E0
1.403814929E1,-7.300044090E-1,1.019549465E0,1.218086118E0,1.748176575E0
1.404821029E1,-6.484446676E-1,1.087679467E0,1.669692310E0,2.095566635E0
1.405827029E1,-6.096302654E-1,1.272364651E0,2.073464186E0,2.507950278E0
1.406833129E1,-6.202276129E-1,1.470656598E0,2.476004637E0,2.945863555E0
1.407839229E1,-5.356296583E-1,1.537846953E0,2.847214538E0,3.280015702E0
1.408845229E1,-3.758900124E-1,1.563916179E0,3.154716686E0,3.541096509E0
1.409851329E1,-2.141383396E-1,1.523387958E0,3.553943521E0,3.872606441E0
1.410857429E1,1.486420691E-2,1.489102809E0,3.857914535E0,4.135353997E0
1.411863429E1,1.598201913E-1,1.597731504E0,4.105454655E0,4.408292910E0
1.412869529E1,2.810413040E-1,1.866129228E0,4.326296389E0,4.719985482E0
1.413875629E1,3.574075484E-1,2.260093276E0,4.531782165E0,5.076692955E0
1.414881629E1,5.790715469E-1,2.542329020E0,4.719815757E0,5.392162969E0
1.415887729E1,9.821689461E-1,2.398115632E0,4.868096468E0,5.514886911E0
1.416893829E1,1.286423550E0,2.137038622E0,4.976765801E0,5.566867833E0
1.417899929E1,1.503443690E0,1.822207282E0,4.916759335E0,5.454842314E0
1.418905929E1,1.677561785E0,1.322801271E0,4.747112898E0,5.205679362E0
1.419912029E1,1.723173283E0,6.435834387E-1,4.491922866E0,4.853956823E0
1.420918129E1,1.419593740E0,8.436947465E-2,4.193839998E0,4.428392318E0
1.421924129E1,9.839444532E-1,-2.676098111E-1,3.899412224E0,4.030530659E0
1.422930229E1,6.020630912E-1,-4.446249095E-1,3.627162355E0,3.703576383E0
1.423936329E1,3.894634099E-1,-5.183366641E-1,3.431153746E0,3.491872087E0
1.424942329E1,3.188103703E-1,-5.455566224E-1,3.235699453E0,3.296820140E0
1.425948429E1,5.314379355E-1,-6.555582440E-1,2.957803513E0,3.075838830E0
1.426954529E1,8.169182995E-1,-9.195728946E-1,2.680167773E0,2.948943728E0
1.427960529E1,1.119793399E0,-1.179204765E0,2.251893141E0,2.777675980E0
1.428966629E1,1.405590536E0,-1.436110955E0,1.620317252E0,2.581380915E0
1.429972729E1,1.429911883E0,-1.477064269E0,8.805088162E-1,2.236439721E0
1.430978729E1,1.332905552E0,-1.382748973E0,2.932378650E-3,1.920583383E0
1.431984829E1,1.114336339E0,-1.188504469E0,-8.334960330E-1,1.830028411E0
1.432990929E1,8.419658710E-1,-9.586115375E-1,-1.615524289E0,2.058582361E0
1.433997029E1,5.628120482E-1,-7.542750317E-1,-2.315051256E0,2.499029920E0
1.435003029E1,2.654323080E-1,-6.561719093E-1,-2.874482444E0,2.960348832E0
1.436009129E1,2.757766172E-2,-6.653400511E-1,-3.372471675E0,3.437586815E0
1.437015229E1,-1.773312865E-1,-7.299161160E-1,-3.761288127E0,3.835558928E0
1.438021229E1,-2.907285324E-1,-8.585826346E-1,-4.046603014E0,4.146888373E0
1.439027329E1,-3.152736819E-1,-1.051167699E0,-4.186188331E0,4.327646447E0
1.440033429E1,-2.631533557E-1,-1.271659769E0,-4.269333984E0,4.462463548E0
1.441039429E1,-1.444088311E-1,-1.445237582E0,-4.300064610E0,4.538735642E0
1.442045529E1,1.110371634E-2,-1.539702274E0,-4.318634198E0,4.584910874E0
1.443051629E1,1.086838053E-1,-1.643352942E0,-4.286214895E0,4.591738145E0
1.444057629E1,1.727877076E-1,-1.681049649E0,-4.310179709E0,4.629625540E0
1.445063729E1,2.715223293E-1,-1.685188016E0,-4.318224893E0,4.643344619E0
1.446069829E1,2.531964245E-1,-1.607895427E0,-4.284648426E0,4.583410114E0
1.447075829E1,2.382977191E-1,-1.497519291E0,-4.267529533E0,4.528924612E0
1.448081929E1,1.745154136E-1,-1.371836314E0,-4.238974655E0,4.458844764E0
1.449088029E1,9.381974459E-2,-1.230540979E0,-4.201880504E0,4.379364453E0
1.450094129E1,-5.864318758E-3,-1.089882991E0,-4.136693405E0,4.277862977E0
1.451100129E1,-9.565006013E-2,-9.726533335E-1,-3.944301884E0,4.063584722E0
1.452106229E1,-1.734934665E-1,-7.548585838E-1,-3.779862392E0,3.858402670E0
1.453112329E1,-2.506647263E-1,-5.434121561E-1,-3.551015235E0,3.601088554E0
1.454118329E1,-3.033893440E-1,-3.402059171E-1,-3.257537050E0,3.289275420E0
1.455124429E1,-3.959338291E-1,-9.706874996E-2,-2.875063072E0,2.903820520E0
1.456130529E1,-3.957049106E-1,1.127533212E-1,-2.480985880E0,2.514873084E0
1.457136529E1,-3.201840274E-1,2.184987545E-1,-1.978187315E0,2.015808664E0
1.458142629E1,-2.199946184E-1,2.538100898E-1,-1.470627362E0,1.508496613E0
1.459148729E1,-1.739575893E-1,1.649458605E-1,-8.253941309E-1,8.595020949E-1
1.460154729E1,-4.560782528E-2,7.150998563E-2,-1.794323373E-1,1.984684243E-1
1.461160829E1,7.707258806E-2,-2.011763781E-2,3.536483735E-1,3.625080347E-1
1.462166929E1,1.245195271E-1,2.112891376E-2,8.359530330E-1,8.454401321E-1
1.463172929E1,2.340992172E-2,2.591009429E-1,1.346893846E0,1.371788743E0
1.464178658E1,-1.752587409E-1,6.722847891E-1,1.863884774E0,1.989157840E0
1.465184758E1,-3.120426567E-1,1.172403283E0,2.267277165E0,2.571467640E0
1.466190858E1,-3.041119319E-1,1.568777554E0,2.722693988E0,3.156993765E0
1.467196858E1,-6.856942087E-2,1.776458082E0,3.248889018E0,3.703482811E0
1.468202958E1,3.714242014E-1,1.920297541E0,3.726829900E0,4.208890553E0
1.469209058E1,6.300243303E-1,2.044515206E0,4.135668388E0,4.656256662E0
1.470215058E1,4.549557701E-1,2.436096514E0,4.336662333E0,4.994816430E0
1.471221158E1,2.774620771E-2,2.929058016E0,4.378782166E0,5.268195514E0
1.472227258E1,-4.208553931E-1,3.271774727E0,4.407500766E0,5.505242241E0
1.473233258E1,-6.476871608E-1,3.248726757E0,4.453748149E0,5.550639312E0
1.474239358E1,-7.473886196E-1,3.135011569E0,4.569563949E0,5.591761974E0
1.475245458E1,-5.923157828E-1,3.031445686E0,4.782639411E0,5.693341784E0
1.476251458E1,-2.072912501E-1,2.468647963E0,4.989979924E0,5.571094333E0
1.477257558E1,1.340026876E-1,1.554473218E0,5.038182616E0,5.274241915E0
1.478263658E1,1.739653368E-1,6.624515265E-1,4.928898155E0,4.976257930E0
1.479269658E1,1.878983746E-1,6.849340707E-2,4.705829802E0,4.710077629E0
1.480275758E1,1.522955556E-1,-1.874637803E-1,4.387902653E0,4.394545062E0
1.481281858E1,8.818565995E-2,-2.738101986E-1,4.162189019E0,4.172117708E0
1.482287858E1,9.782333314E-2,-2.738090292E-1,3.865269163E0,3.876189687E0
1.483293958E1,1.638229027E-1,-2.892594194E-1,3.565356116E0,3.580820184E0
1.484300058E1,4.093752166E-2,-1.557172000E-1,3.238041263E0,3.242041787E0
1.485306158E1,-8.161821350E-2,-8.841574788E-2,2.834970469E0,2.837522940E0
1.486312158E1,-1.414970639E-1,-1.751325873E-1,2.505968694E0,2.516062785E0
1.487318258E1,-1.313717330E-1,-3.101196536E-1,2.141664355E0,2.167984995E0
1.488324358E1,-5.200952142E-2,-5.562169737E-1,1.686248116E0,1.776376937E0
1.489330358E1,7.647675678E-2,-8.786385843E-1,1.161089798E0,1.458075436E0
1.490336458E1,1.947542350E-1,-1.222278571E0,5.699935985E-1,1.362639651E0
1.491342558E1,2.269968054E-1,-1.509989648E0,-1.050943458E-1,1.530568884E0
1.492348558E1,2.652267784E-1,-1.819321682E0,-7.949254596E-1,2.003043462E0
1.493354658E1,1.909131990E-1,-1.975999579E0,-1.501148658E0,2.488869117E0
1.494360758E1,1.097525302E-1,-2.058792352E0,-2.177518896E0,2.998709741E0
1.495366758E1,1.933893487E-2,-2.109021689E0,-2.687838736E0,3.416551411E0
1.496372858E1,-9.851725146E-2,-2.105392030E0,-3.106563696E0,3.754080346E0
1.497378958E1,-1.448859639E-1,-2.039277270E0,-3.420486086E0,3.984892569E0
1.498384958E1,-1.134634656E-1,-1.948331139E0,-3.581209672E0,4.078471638E0
1.499391058E1,-1.860262424E-2,-1.807130529E0,-3.727677162E0,4.142661443E0
1.500397158E1,1.022719039E-1,-1.708311708E0,-3.858037326E0,4.220573473E0
1.501403158E1,2.705078374E-1,-1.710758767E0,-3.932351929E0,4.296889776E0
1.502409258E1,3.474041319E-1,-1.736895821E0,-3.990177383E0,4.365662868E0
1.503415358E1,3.433154663E-1,-1.732131218E0,-4.064683775E0,4.431681199E0
1.504421458E1,3.028122421E-1,-1.678077217E0,-4.134595424E0,4.472417436E0
1.505427458E1,2.014076355E-1,-1.581876194E0,-4.159098766E0,4.454323728E0
1.506433558E1,1.332994138E-1,-1.460215517E0,-4.132243089E0,4.384681407E0
1.507439658E1,8.404422328E-2,-1.373295195E0,-4.029763618E0,4.258168379E0
1.508445658E1,-8.352309018E-3,-1.252022480E0,-3.936424515E0,4.130746665E0
1.509451758E1,-1.783913867E-1,-1.128931282E0,-3.783888785E0,3.952736224E0
1.510457858E1,-2.891566546E-1,-1.039649561E0,-3.588133945E0,3.746890442E0
1.511463858E1,-4.110121903E-1,-9.392005357E-1,-3.299856273E0,3.455442097E0
1.512469958E1,-5.547051761E-1,-7.772537121E-1,-3.024078194E0,3.171256863E0
1.513476058E1,-7.168486123E-1,-5.954079366E-1,-2.721897597E0,2.876996537E0
1.514482058E1,-8.964559275E-1,-4.307868889E-1,-2.323307524E0,2.527245225E0
1.515488158E1,-9.844788887E-1,-3.287181848E-1,-1.873316333E0,2.141627514E0
1.516494258E1,-1.102023272E0,-2.041280526E-1,-1.415250136E0,1.805285712E0
1.517500258E1,-1.151556205E0,-1.232996517E-1,-9.313328147E-1,1.486157902E0
1.518506358E1,-1.161369880E0,-7.837227792E-2,-3.679535866E-1,1.220783377E0
1.519512458E1,-1.146343851E0,-3.085458755E-2,1.596400970E-1,1.157817426E0
1.520518458E1,-1.174596135E0,1.523720080E-1,6.664890289E-1,1.359080916E0
1.521524558E1,-1.302575899E0,3.396133018E-1,1.246504170E0,1.834615440E0
1.522530658E1,-1.512597506E0,5.780592477E-1,1.722810756E0,2.364356278E0
1.523536658E1,-1.640217812E0,7.540920138E-1,2.173507707E0,2.825438901E0
1.524542758E1,-1.676919615E0,7.808895108E-1,2.705421313E0,3.277369723E0
1.525548858E1,-1.576354084E0,7.201764089E-1,3.328480148E0,3.752642582E0
1.526554958E1,-1.255309054E0,6.844370574E-1,3.919343044E0,4.171990508E0
1.527560958E1,-8.536847144E-1,6.912651435E-1,4.516958304E0,4.648605964E0
1.528567058E1,-4.527503465E-1,8.665558979E-1,5.103352758E0,5.196163139E0
1.529573158E1,-1.454968518E-1,1.260403587E0,5.627145166E0,5.768409595E0
1.530579158E1,3.368759277E-1,1.414486198E0,6.028028517E0,6.200918029E0
1.531585258E1,9.022819470E-1,1.359455127E0,6.302672237E0,6.510446089E0
1.532591358E1,1.206927437E0,1.523358429E0,6.451451715E0,6.737842680E0
1.533597358E1,1.503899188E0,1.481218716E0,6.322694272E0,6.665747108E0
1.534603458E1,1.818854489E0,1.171927028E0,5.898924919E0,6.283228455E0
1.535609558E1,1.830129821E0,8.081258413E-1,5.332479996E0,5.695417934E0
1.536615558E1,1.592437581E0,4.946595338E-1,4.592783242E0,4.886123557E0
1.537621658E1,1.206718984E0,2.274432403E-1,3.805463256E0,3.998681249E0
1.538627758E1,7.543473910E-1,-4.867397726E-2,3.153737862E0,3.243065162E0
1.539633758E1,4.379935822E-1,-2.141089574E-1,2.581635758E0,2.627265538E0
1.540639858E1,3.320107520E-1,-3.112513822E-1,2.141897659E0,2.189710972E0
1.541645958E1,3.573362855E-1,-3.598101693E-1,1.686717063E0,1.761296974E0
1.542651958E1,4.684341869E-1,-5.268680441E-1,1.298707527E0,1.477721815E0
1.543658058E1,5.698304611E-1,-7.530994490E-1,9.189811563E-1,1.317722239E0
1.544664158E1,6.230996190E-1,-9.728410292E-1,5.374357170E-1,1.274170300E0
1.545670258E1,6.435463089E-1,-1.198663129E0,1.923693019E-1,1.374027327E0
1.546676258E1,6.579265125E-1,-1.393330971E0,-2.076094848E-1,1.554779788E0
1.547682358E1,5.921416819E-1,-1.567206407E0,-6.096587706E-1,1.782821222E0
1.548688458E1,4.821343593E-1,-1.649408904E0,-1.011891074E0,1.994223362E0
1.549694458E1,4.500160423E-1,-1.782831255E0,-1.448064126E0,2.340489572E0
1.550700558E1,4.287327255E-1,-1.884181336E0,-1.823306267E0,2.656764348E0
1.551706658E1,2.697089615E-1,-1.958047750E0,-2.145810031E0,2.917395174E0
1.552712658E1,1.089102387E-1,-1.923702082E0,-2.544503015E0,3.191705928E0
1.553718758E1,-4.166389659E-2,-1.840113796E0,-2.856079502E0,3.397785276E0
1.554724858E1,-1.400275125E-1,-1.814847977E0,-3.066833619E0,3.566335561E0
1.555730858E1,-2.317273490E-1,-1.715209960E0,-3.323326412E0,3.747017642E0
1.556736958E1,-2.455415422E-1,-1.622108839E0,-3.553567545E0,3.913996682E0
1.557743058E1,-2.343011472E-1,-1.549588746E0,-3.759637458E0,4.073204650E0
1.558749058E1,-2.600262648E-1,-1.451783247E0,-3.910464631E0,4.179356636E0
1.559755158E1,-2.637218513E-1,-1.395555837E0,-4.044114439E0,4.286255581E0
1.560761258E1,-2.955793825E-1,-1.306123843E0,-4.111824612E0,4.324399184E0
1.561767258E1,-3.534957612E-1,-1.127205768E0,-4.174492730E0,4.338426172E0
1.562773358E1,-3.923163030E-1,-1.002108682E0,-4.138565099E0,4.276196320E0
1.563779496E1,-4.566922469E-1,-8.974724659E-1,-4.031604322E0,4.155461231E0
1.564785496E1,-4.993864229E-1,-8.137274739E-1,-3.854641848E0,3.971121124E0
1.565791596E1,-4.649479307E-1,-7.479594541E-1,-3.692535980E0,3.796108783E0
1.566797696E1,-4.298570354E-1,-6.521218354E-1,-3.508305418E0,3.594196275E0
1.567803796E1,-3.754815844E-1,-5.786118096E-1,-3.284875706E0,3.356514033E0
1.568809796E1,-3.342432189E-1,-4.953343025E-1,-3.094089831E0,3.151264267E0
1.569815896E1,-2.430037044E-1,-4.544131485E-1,-2.875451328E0,2.921260421E0
1.570821996E1,-1.739552504E-1,-4.008833510E-1,-2.602479327E0,2.638913894E0
1.571827996E1,-1.219591776E-1,-3.024904990E-1,-2.345207686E0,2.367778206E0
1.572834096E1,-8.032203197E-2,-1.201070720E-1,-2.048198367E0,2.053288554E0
1.573840196E1,-3.137265086E-2,3.677840173E-2,-1.756110649E0,1.756775884E0
1.574846196E1,-3.115908131E-2,2.554908720E-1,-1.402921867E0,1.426336650E0
1.575852296E1,1.783722371E-2,4.141907367E-1,-1.044807390E0,1.124052763E0
1.576858396E1,7.359291002E-2,5.351243126E-1,-6.893095422E-1,8.757405959E-1
1.577864396E1,1.278998025E-1,6.340258723E-1,-3.117308539E-1,7.179995067E-1
1.578870496E1,1.249918360E-1,7.790315580E-1,1.096183366E-1,7.965734788E-1
1.579876596E1,1.395170505E-1,8.497814056E-1,4.526586914E-1,9.728788905E-1
1.580882596E1,8.314886838E-2,9.979986745E-1,7.663074321E-1,1.261008394E0
1.581888696E1,7.104528730E-2,1.074461837E0,1.034643175E0,1.493319179E0
1.582894796E1,2.112553699E-1,1.009617384E0,1.305455799E0,1.663782118E0
1.583900796E1,4.963251132E-1,8.896050373E-1,1.586650153E0,1.885522328E0
1.584906896E1,8.836692363E-1,8.259045929E-1,1.937124658E0,2.283734148E0
1.585912996E1,1.146166388E0,9.750442600E-1,2.163814777E0,2.635621955E0
1.586919096E1,1.269452153E0,1.225328771E0,2.273966380E0,2.878169985E0
1.587925096E1,1.231680455E0,1.461796312E0,2.316266892E0,3.003161254E0
1.588931196E1,1.027266620E0,1.681540231E0,2.307003733E0,3.033994146E0
1.589937296E1,5.154607111E-1,2.039272592E0,2.250816084E0,3.080666404E0
1.590943296E1,-4.028177561E-1,2.667209759E0,2.254761200E0,3.515710186E0
1.591949396E1,-1.270754328E0,3.222484454E0,2.394320789E0,4.210937503E0
1.592955496E1,-1.578648093E0,3.092171651E0,2.589598496E0,4.331244128E0
1.593961496E1,-1.834516841E0,2.756048260E0,2.909542349E0,4.407571977E0
1.594967596E1,-2.018263839E0,2.267854870E0,3.380553696E0,4.543643684E0
1.595973696E1,-1.816339455E0,1.278440200E0,3.717025874E0,4.330101582E0
1.596979696E1,-1.551759818E0,3.499190193E-1,3.917336864E0,4.227993609E0
1.597985796E1,-1.522563354E0,-4.969802937E-1,4.269445665E0,4.559973122E0
1.598991896E1,-1.313521009E0,-1.243229145E0,4.491648631E0,4.842092892E0
1.599997896E1,-9.604868858E-1,-1.827048192E0,4.700532809E0,5.133775301E0
1.601003996E1,-5.202601057E-1,-2.275693063E0,4.803992858E0,5.341141907E0
1.602010096E1,-1.201152581E-1,-2.453153426E0,4.698782737E0,5.301975917E0
1.603016096E1,9.600601852E-2,-2.341632113E0,4.402549344E0,4.987474194E0
1.604022196E1,1.763014457E-1,-2.085445130E0,3.950824453E0,4.470925793E0
1.605028296E1,1.865587775E-1,-1.891935037E0,3.517268615E0,3.998174692E0
1.606034396E1,2.709493022E-1,-1.689347433E0,3.007063966E0,3.459731488E0
1.607040396E1,4.084999341E-1,-1.524680485E0,2.504435554E0,2.960358124E0
1.608046496E1,4.959194626E-1,-1.473016534E0,1.967475216E0,2.507323782E0
1.609052596E1,4.411339755E-1,-1.422700951E0,1.274116477E0,1.960114786E0
1.610058596E1,2.009531607E-1,-1.398343205E0,5.717442548E-1,1.524020139E0
1.611064696E1,-1.113115440E-1,-1.397330174E0,-7.348020494E-2,1.403681309E0
1.612070796E1,-3.445156074E-1,-1.404913428E0,-7.059934026E-1,1.609627109E0
1.613076796E1,-5.931455027E-1,-1.403605991E0,-1.241557426E0,1.965552392E0
1.614082896E1,-7.798036829E-1,-1.391732927E0,-1.712389264E0,2.340361364E0
1.615088996E1,-7.667554750E-1,-1.454865607E0,-2.144493822E0,2.702480647E0
1.616094996E1,-7.386332913E-1,-1.521629408E0,-2.378147975E0,2.918308240E0
1.617101096E1,-6.583489738E-1,-1.558391437E0,-2.580948125E0,3.085984522E0
1.618107196E1,-5.379944184E-1,-1.623455452E0,-2.691670416E0,3.189064946E0
1.619113196E1,-3.899066654E-1,-1.655436214E0,-2.724800155E0,3.212013722E0
1.620119296E1,-3.047620692E-1,-1.653074523E0,-2.732414399E0,3.208056070E0
1.621125396E1,-2.129775211E-1,-1.654634853E0,-2.717689941E0,3.188889232E0
1.622131396E1,-1.763994413E-1,-1.570987509E0,-2.681018543E0,3.112391194E0
1.623137496E1,-8.634276375E-2,-1.548503796E0,-2.644046014E0,3.065338220E0
1.624143596E1,-1.768066451E-2,-1.474073710E0,-2.602027338E0,2.990610669E0
1.625149696E1,-8.824471682E-3,-1.397503837E0,-2.530245164E0,2.890542412E0
1.626155696E1,-3.267334571E-2,-1.259639356E0,-2.471019301E0,2.773751114E0
1.627161796E1,-7.868086472E-2,-1.071116937E0,-2.366465238E0,2.598776615E0
1.628167896E1,-1.064211521E-1,-9.093700880E-1,-2.199048344E0,2.382035483E0
1.629173896E1,-8.198958479E-2,-7.931508297E-1,-2.011638066E0,2.163908094E0
1.630179996E1,-1.134024353E-1,-6.177130178E-1,-1.763274073E0,1.871781222E0
1.631186096E1,-1.184549412E-1,-5.003632003E-1,-1.465246169E0,1.552849394E0
1.632192096E1,-1.448489072E-1,-3.802298158E-1,-1.176835765E0,1.245190081E0
1.633198196E1,-2.489903031E-1,-2.272482356E-1,-9.134800959E-1,9.736959572E-1
1.634204296E1,-2.844236990E-1,-1.214811677E-1,-7.162535119E-1,7.801753700E-1
1.635210296E1,-2.784486486E-1,-2.794735193E-2,-5.545300519E-1,6.211427235E-1
1.636216396E1,-2.344405302E-1,-2.466355562E-2,-3.776143563E-1,4.451553158E-1
1.637222496E1,-1.481528033E-1,4.404941440E-2,-2.618301308E-1,3.040470711E-1
1.638228496E1,9.105722755E-3,6.835541278E-2,-2.170211631E-1,2.277137718E-1
1.639234596E1,1.526618837E-1,1.557172000E-2,-1.517510337E-1,2.158159063E-1
1.640240696E1,2.216865468E-1,5.086551368E-2,-2.393031478E-1,3.301487878E-1
1.641246796E1,1.841758179E-1,1.276055413E-1,-3.091072083E-1,3.817737187E-1
1.642252796E1,1.179043528E-2,2.968052512E-1,-3.725144148E-1,4.764444991E-1
1.643258896E1,-1.947159357E-1,4.941204205E-1,-4.290078735E-1,6.827276479E-1
1.644264996E1,-3.876229622E-1,6.741734397E-1,-4.087905407E-1,8.785619465E-1
