"Time (s)","Linear Acceleration x (m/s^2)","Linear Acceleration y (m/s^2)","Linear Acceleration z (m/s^2)","Absolute acceleration (m/s^2)"
7.551374991E-3,3.918306917E-1,3.272926337E-1,3.844193459E-1,6.390852779E-1
1.761337501E-2,3.561726165E-1,4.627021614E-1,1.133833587E-1,5.948176266E-1
2.767437499E-2,2.332528876E-1,6.719354180E-1,-3.442875659E-1,7.902139226E-1
3.773637500E-2,2.257200658E-1,5.197005272E-1,-2.915158600E-1,6.371967378E-1
4.779837499E-2,3.407498543E-1,3.207113001E-1,-4.120182037E-1,6.234783087E-1
5.786037500E-2,4.155486064E-1,2.109002978E-1,-5.216511583E-1,6.994851756E-1
6.792237499E-2,2.419022352E-1,2.398650652E-1,-3.811484134E-1,5.112006005E-1
7.798437501E-2,2.310381085E-2,1.152304941E-1,-1.495203209E-1,1.901793344E-1
8.804637499E-2,-8.885721266E-3,2.081804654E-1,-5.399517739E-1,5.787624559E-1
9.811166665E-2,9.241948262E-2,2.352457649E-1,-7.833111352E-1,8.230785291E-1
1.081736667E-1,3.230364454E-1,8.567252666E-2,-6.536625767E-1,7.341437809E-1
1.182356667E-1,3.633383793E-1,-4.753201604E-2,-2.760926592E-1,4.588041269E-1
1.282976667E-1,2.463124976E-1,4.316297650E-2,-4.277822971E-2,2.536983759E-1
1.383596667E-1,1.834046432E-1,2.272502822E-1,1.185675001E-1,3.151796408E-1
1.484216667E-1,2.763803422E-1,3.108704361E-1,1.338614774E-1,4.369730161E-1
1.584836667E-1,1.674342893E-1,2.315055934E-1,3.432888615E-1,4.466277235E-1
1.685456667E-1,-8.530093610E-2,1.746621788E-1,3.694341016E-1,4.174502148E-1
1.786076667E-1,-9.937196821E-2,1.581122196E-1,4.429587454E-1,4.807147929E-1
1.886696666E-1,-1.038386562E-1,1.020356673E-1,2.149641126E-1,2.596214815E-1
1.987316667E-1,-3.918847784E-2,1.436868462E-1,-1.443203920E-1,2.073885776E-1
2.087936667E-1,5.918551683E-2,2.586100692E-1,-6.303035349E-1,6.838601022E-1
2.188546667E-1,1.553872709E-1,1.374797344E-1,-7.941273147E-1,8.207825981E-1
2.289186667E-1,2.911270201E-2,1.203675655E-1,-6.930067366E-1,7.039845433E-1
2.389806666E-1,1.950368017E-2,1.533555096E-1,-3.979129654E-1,4.268876128E-1
2.490426667E-1,1.248336688E-1,2.358152837E-2,-4.141758263E-2,1.336224139E-1
2.591046666E-1,4.196134445E-1,-3.888018340E-2,1.580812293E-1,4.500853103E-1
2.691666667E-1,4.083245176E-1,2.094115967E-1,1.353139257E-1,4.784265743E-1
2.792286667E-1,2.569640779E-1,4.275808606E-1,-2.809762537E-2,4.996452804E-1
2.892906667E-1,1.444906922E-1,3.233741221E-1,-1.886194825E-2,3.546888158E-1
2.993526667E-1,3.361885875E-2,5.512813389E-2,7.156758070E-2,9.639116877E-2
3.094136667E-1,-1.000683716E-1,-4.137109727E-2,6.911175013E-2,1.284588677E-1
3.194756666E-1,-2.485192367E-1,2.638585299E-2,-2.385722458E-1,3.455064989E-1
3.295376667E-1,-2.815807097E-1,1.857625329E-1,-3.846064568E-1,5.115833669E-1
3.395996667E-1,-2.107861309E-1,1.924473622E-1,-5.091170669E-1,5.836668296E-1
3.496616667E-1,-1.925482267E-1,2.743782556E-1,-6.066170490E-1,6.930674504E-1
3.597236667E-1,-3.011699054E-1,2.177418324E-1,-3.564836884E-1,5.149712978E-1
3.697856667E-1,-3.431077440E-1,1.431635204E-1,-4.414998651E-2,3.743900892E-1
3.798476667E-1,-3.341220354E-1,6.373523533E-2,2.128328025E-2,3.408118143E-1
3.899096667E-1,-1.873303176E-1,3.020379245E-3,-8.721940756E-2,2.066615486E-1
3.999716667E-1,-1.975309315E-1,-7.120037556E-2,-1.803737390E-1,2.768079625E-1
4.100336667E-1,-2.208972824E-1,-1.116932210E-1,-4.523522973E-2,2.516291140E-1
4.200956667E-1,-2.132079014E-1,-1.808418086E-1,3.982421637E-2,2.823957103E-1
4.301576666E-1,1.084386608E-1,-2.156546688E-1,-9.571131885E-2,2.596662009E-1
4.402196667E-1,3.573765582E-1,-1.066871274E-1,1.720683539E-1,4.107403875E-1
4.502816666E-1,1.991321623E0,-6.678865135E-2,6.352140266E-1,2.091248285E0
4.603436667E-1,3.708178744E0,2.329881549E-1,1.378828415E0,3.963084768E0
4.704056667E-1,7.416462153E-1,-3.642938143E-1,1.436470851E0,1.657165531E0
4.804676667E-1,-1.417260117E0,-6.064743769E-1,7.423543131E-1,1.711001851E0
4.905296667E-1,-1.555445902E0,-4.096363404E-1,5.814611578E-1,1.710354047E0
5.005906667E-1,-2.078746268E0,-1.295611426E-1,-1.888592184E-1,2.091324925E0
5.106526666E-1,-1.733523147E0,-1.501500660E-1,-7.563665807E-2,1.741656811E0
5.207146667E-1,-2.951940510E-1,-4.373614982E-1,1.381188351E-1,5.454369078E-1
5.307766667E-1,1.552900609E-1,-3.863264152E-1,1.373154277E-1,4.384274499E-1
5.408386667E-1,5.702441517E-1,-1.253298050E-1,7.448651075E-2,5.885866060E-1
5.509006667E-1,8.777202791E-1,-1.114771664E-2,-5.821897209E-2,8.797196193E-1
5.609626667E-1,5.531910396E-1,-4.625381470E-2,-1.242661965E-1,5.688601139E-1
5.710246667E-1,9.427261144E-2,-1.784766099E-1,-1.155544299E-1,2.325812800E-1
5.810866667E-1,-1.363181850E-1,-4.011263028E-1,-6.957426488E-2,4.293314998E-1
5.911486667E-1,-4.009026468E-2,-5.303567854E-1,1.398653984E-2,5.320537307E-1
6.012106667E-1,-4.518617159E-1,-6.235292432E-1,-7.941278994E-1,1.106167640E0
6.112726667E-1,-5.119541359E-1,-3.822526601E-1,-1.081387571E0,1.256030737E0
6.213346666E-1,1.113026270E-1,-1.887896365E-1,5.342688650E-1,5.774712302E-1
6.313966667E-1,-1.654908210E-2,-3.438247588E-1,1.445211854E0,1.485640145E0
6.414586667E-1,-6.568373224E-1,-3.658769479E-1,1.669930292E0,1.831384282E0
6.515206667E-1,-6.883187315E-1,-1.447516242E-1,7.537312406E-1,1.030944466E0
6.615826667E-1,-1.586694592E-1,-2.863746956E-1,6.730104285E-1,7.484179985E-1
6.716436667E-1,3.872128531E-1,2.338924268E-1,5.243800539E-1,6.925416246E-1
6.817056666E-1,4.538863143E-1,7.118365252E-1,5.157109720E-1,9.892834940E-1
6.917676667E-1,6.356508136E-3,1.741429460E-1,6.619773173E-1,6.845291371E-1
7.018296667E-1,-2.875578797E-1,-6.738986206E-1,1.064193249E-2,7.327633559E-1
7.118916667E-1,-9.198898137E-2,-8.635387346E-1,-3.941070127E-1,9.536673720E-1
7.219536667E-1,1.391675332E-1,-4.120641044E-1,-1.561750370E-1,4.621201907E-1
7.320156667E-1,4.395308152E-1,-1.846579939E-2,-9.348002136E-2,4.497408561E-1
7.420776667E-1,4.853139290E-1,1.166709557E-1,-3.460247737E-1,6.073506941E-1
7.521396667E-1,-2.639374673E-2,3.563234746E-2,-3.398559612E-1,3.427365875E-1
7.622016667E-1,-3.356430423E-1,-3.320078284E-2,-1.676110214E-1,3.766324446E-1
7.722636667E-1,-4.545262921E-1,-1.777261198E-3,-1.129775620E-1,4.683601588E-1
7.823256667E-1,-4.665695098E-1,3.608901501E-3,-3.030845761E-1,5.563815165E-1
7.923876667E-1,-2.561595011E-1,5.265008390E-2,-2.960901368E-1,3.950431501E-1
8.024496667E-1,1.627426296E-2,5.386843899E-1,-5.130241764E-1,7.440695727E-1
8.125116666E-1,4.115289380E-1,6.512611252E-1,-1.189433007E0,1.417126669E0
8.225736667E-1,4.743376820E-1,1.833318454E-1,-1.189830617E0,1.293948878E0
8.326356667E-1,1.761153580E-1,-4.904626948E-1,-4.938073021E-1,7.179247355E-1
8.426966667E-1,3.322466871E-1,-7.654736191E-1,-1.684208608E-1,8.512950775E-1
8.527586667E-1,5.315848468E-1,-7.402440530E-1,-5.112612408E-1,1.044955388E0
8.628206667E-1,5.638953911E-1,-6.762845770E-1,-7.331829554E-1,1.145816777E0
8.728826666E-1,6.756121472E-1,-5.164360267E-1,-7.852348691E-1,1.157476455E0
8.829446667E-1,8.093692517E-1,-1.173951334E-1,1.855976415E-1,8.386338221E-1
8.930066667E-1,5.740303700E-1,2.859437558E-1,8.514902544E-1,1.065978588E0
9.030686667E-1,7.557657062E-1,3.120828563E-1,6.429931623E-1,1.040200807E0
9.131306667E-1,6.370670823E-1,1.740672246E-1,7.023862553E-1,9.641059680E-1
9.231926667E-1,7.040516885E-1,2.650127703E-1,9.729322457E-1,1.229844585E0
9.332546667E-1,5.974084152E-1,3.621490556E-1,8.550705045E-1,1.104171328E0
9.433166667E-1,1.756986891E-1,3.347757541E-1,5.150794727E-1,6.389457708E-1
9.533786667E-1,-7.720871855E-2,1.073117562E-1,1.331890476E-1,1.876601226E-1
9.634406667E-1,4.849761061E-2,2.608783503E-1,6.837886012E-1,7.334687335E-1
9.735026667E-1,-4.964995064E-2,4.441542086E-1,1.083285577E0,1.171855674E0
9.835646666E-1,-1.765210086E-1,4.706195837E-1,6.093389279E-1,7.898964414E-1
9.936266667E-1,-2.781572380E-1,3.652517344E-1,3.796597123E-2,4.606752582E-1
1.003688667E0,-3.563605314E-1,2.306225176E-1,-9.594228387E-2,4.351832899E-1
1.013749667E0,-3.108530407E-1,1.259728526E-1,-9.570137858E-3,3.355448703E-1
1.023811667E0,-3.366674014E-1,-5.189973995E-2,2.220304728E-2,3.413671008E-1
1.033873667E0,-1.966254171E-1,-5.366428345E-2,-1.431719989E-1,2.490775607E-1
1.043935667E0,-1.112421083E-1,-4.249244705E-2,5.873645067E-2,1.327794614E-1
1.053997667E0,-1.251459832E-1,-1.539628892E-1,3.032751954E-1,3.624112753E-1
1.064059667E0,-6.498098463E-2,-4.406023175E-2,4.085227382E-1,4.159983895E-1
1.074121667E0,-7.771600105E-2,2.081594154E-1,4.460940224E-1,4.983673303E-1
1.084183667E0,-1.492156079E-1,2.730044523E-1,3.651586175E-1,4.797265310E-1
1.094242500E0,-1.633620691E-1,2.426246586E-1,2.281378895E-1,3.709458009E-1
1.104304500E0,-2.458280557E-1,1.225088158E-1,1.640588379E-1,3.199299068E-1
1.114366500E0,-2.822123551E-1,-8.197503984E-3,2.434558403E-1,3.728025733E-1
1.124428500E0,-8.264045298E-2,-1.668225244E-1,2.858925927E-1,3.411653172E-1
1.134490500E0,1.609475344E-2,-1.941594270E-1,2.381190866E-1,3.076647910E-1
1.144552500E0,4.738203496E-2,-1.882891148E-2,2.807745248E-1,2.853662890E-1
1.154614500E0,1.327962609E-1,9.471042171E-2,4.250686044E-1,4.552891711E-1
1.164675500E0,7.957695052E-2,4.473821640E-2,4.144430441E-1,4.243784111E-1
1.174737500E0,-4.760218263E-3,2.049741447E-3,2.355995214E-1,2.356565204E-1
1.184799500E0,-9.072379008E-2,-1.922959194E-2,7.130504072E-2,1.169828711E-1
1.194861500E0,-1.640766719E-1,-2.878876626E-3,-6.985376179E-2,1.783507506E-1
1.204923500E0,-2.300526334E-1,2.584323138E-2,-1.716777599E-1,2.882105827E-1
1.214985500E0,-1.247334621E-1,6.597676545E-2,-7.898418903E-2,1.617092213E-1
1.225047500E0,3.652477875E-2,8.703609735E-2,1.580864918E-1,1.841213746E-1
1.235109500E0,1.525988799E-1,1.052605529E-1,3.294303757E-1,3.780086964E-1
1.245171500E0,1.875332160E-1,1.232614987E-1,4.157282621E-1,4.724321031E-1
1.255233500E0,5.283748716E-2,1.352230015E-1,4.694168115E-1,4.913544577E-1
1.265295500E0,-1.646727955E-1,1.153921697E-1,3.111923254E-1,3.705039079E-1
1.275357500E0,-1.015932523E-1,1.615112060E-1,1.053972316E-1,2.179808134E-1
1.285419500E0,3.689446896E-2,2.245465297E-1,-2.087455988E-3,2.275669205E-1
1.295481500E0,2.698862784E-2,1.784985369E-1,-3.083423924E-1,3.573025954E-1
1.305543500E0,4.710611947E-2,1.188547446E-1,-5.418924648E-1,5.567700424E-1
1.315605500E0,1.710220677E-1,8.305969834E-2,-3.979591584E-1,4.410430284E-1
1.325666500E0,2.839249315E-1,1.338176233E-1,-4.583223045E-2,3.172083170E-1
1.335728500E0,3.513347764E-1,2.323098779E-1,2.063464862E-1,4.690233223E-1
1.345790500E0,3.236509877E-1,2.069547428E-1,3.774646676E-1,5.385720033E-1
1.355852500E0,2.192064869E-1,1.788429379E-2,3.803344810E-1,4.393468439E-1
1.365914500E0,9.569319248E-2,-8.827102929E-2,1.793072069E-1,2.215852796E-1
1.375976500E0,7.373031959E-2,4.091048285E-2,1.458003223E-2,8.557105220E-2
1.386038500E0,5.107615963E-3,1.782783893E-1,1.217390299E-3,1.783556948E-1
1.396100500E0,-1.563622210E-1,1.249386263E-1,-2.120539534E-1,2.915916385E-1
1.406162500E0,-2.783133586E-1,1.130320872E-1,-4.520792323E-1,5.427800758E-1
1.416224500E0,-3.380495370E-1,-2.456649184E-2,-3.726910007E-1,5.037654057E-1
1.426286500E0,-2.078403767E-1,-4.010166675E-2,-3.019303358E-1,3.687379741E-1
1.436348500E0,-9.604782611E-3,1.864199062E-1,-1.118999201E-1,2.176378308E-1
1.446410500E0,7.249290258E-2,3.086441088E-1,9.120486975E-2,3.299010989E-1
1.456472500E0,9.056876577E-2,2.971343033E-1,1.687056202E-1,3.534870320E-1
1.466534500E0,1.640458278E-2,2.821405806E-1,2.154979634E-1,3.554036997E-1
1.476595500E0,-5.780637793E-2,2.907644928E-1,1.282633531E-1,3.230124693E-1
1.486657500E0,-8.733722895E-2,2.612888248E-1,4.603571355E-2,2.793186862E-1
1.496719500E0,-8.698413022E-2,2.347212696E-1,-1.265922189E-2,2.506403184E-1
1.506781500E0,-1.827659080E-1,2.698716603E-1,-1.192837840E-1,3.470773852E-1
1.516843500E0,-1.173671398E-1,1.965193632E-1,-1.379562825E-1,2.672580055E-1
1.526905500E0,-1.042737622E-1,-3.364473268E-2,-1.649487841E-1,1.980229454E-1
1.536967500E0,8.403179795E-4,3.853154317E-2,-4.530130327E-2,5.947767674E-2
1.547029500E0,3.361615442E-2,1.882915999E-1,1.871734661E-1,2.676147956E-1
1.557091500E0,8.054671124E-2,1.962692486E-1,2.101881069E-1,2.986443217E-1
1.567153500E0,8.162559561E-2,7.145107493E-2,1.177623385E-1,1.601123429E-1
1.577215500E0,1.033756299E-1,-7.165411949E-2,-3.175798237E-2,1.297281894E-1
1.587277500E0,1.214946163E-1,-7.801442832E-2,-1.221500891E-1,1.891238670E-1
1.597339500E0,6.377667747E-2,-1.258057684E-1,-2.787853020E-1,3.124352742E-1
1.607401500E0,5.095409900E-3,-1.519416529E-1,-3.700463051E-1,4.000581170E-1
1.617462500E0,-2.878445394E-2,-1.501991826E-1,-3.916868502E-1,4.204841589E-1
1.627524500E0,1.037310675E-2,-1.367785071E-1,-3.624577886E-1,3.875456229E-1
1.637586500E0,3.010709412E-2,-1.048437926E-1,-2.209475684E-1,2.464071548E-1
1.647648500E0,6.783157535E-2,-5.268779844E-3,-1.462400329E-1,1.612917539E-1
1.657710500E0,9.880990461E-2,-1.879441291E-3,-1.884165841E-1,2.127621647E-1
1.667772500E0,1.447189528E-1,-1.619341059E-1,-2.290892315E-1,3.156708823E-1
1.677834500E0,1.741744479E-1,-2.797283117E-1,-1.186598861E-1,3.502353998E-1
1.687896500E0,1.027425957E-1,-3.350175364E-1,1.093663216E-2,3.505886487E-1
1.697958500E0,-1.083798963E-1,-3.491542035E-1,2.073831975E-2,3.661761020E-1
1.708020500E0,-2.405633689E-1,-1.783296986E-1,-3.393490076E-2,3.013698614E-1
1.718082500E0,-3.096295839E-1,1.623713315E-2,-4.293014038E-1,5.295600240E-1
1.728144500E0,-4.194394898E-1,1.694344756E-1,-6.681256646E-1,8.068639482E-1
1.738206500E0,-3.050741643E-1,1.614100492E-1,-5.721804571E-1,6.682169747E-1
1.748268500E0,-1.434007712E-1,-2.180701536E-1,-4.371115297E-1,5.091020158E-1
1.758330500E0,5.729321167E-2,-2.337997484E-1,-2.115177637E-1,3.204443771E-1
1.768392500E0,3.145315240E-1,-1.191582151E-1,-1.383322585E-1,3.636819676E-1
1.778453500E0,5.034492876E-1,5.509685129E-3,1.139949775E-1,5.162232044E-1
1.788515500E0,5.051023686E-1,-1.991612814E-1,1.930306220E-1,5.762416505E-1
1.798577500E0,3.432976323E-1,-5.746950522E-1,2.944365442E-2,6.700705904E-1
1.808639500E0,1.339947939E-1,-5.773398940E-1,-3.805555058E-1,7.043425665E-1
1.818701500E0,-2.675481595E-1,-3.460041623E-1,-8.757404119E-1,9.788882301E-1
1.828763500E0,-4.712348570E-1,-1.044397500E-1,-1.090872924E0,1.192884608E0
1.838825500E0,-4.253188652E-1,-7.205056071E-2,-1.140868372E0,1.219699989E0
1.848887500E0,-2.579177588E-2,-1.416115232E-1,-1.106770334E0,1.116091220E0
1.858949500E0,3.973972775E-1,-6.263031623E-1,-9.217778796E-1,1.183154557E0
1.869011500E0,9.487578097E-1,-1.085393499E0,-8.748925656E-1,1.686314748E0
1.879073500E0,1.397817832E0,-1.262145472E0,-8.766385442E-1,2.077354332E0
1.889135500E0,1.398351098E0,-1.276823884E0,-7.697736615E-1,2.044068618E0
1.899197500E0,8.607162836E-1,-1.278591936E0,-2.467636102E-1,1.560936302E0
1.909259500E0,4.379881370E-1,-1.270446910E0,-8.194551140E-1,1.573968120E0
1.919320500E0,-3.411521427E-3,-9.306410891E-1,-1.688640797E0,1.928111049E0
1.929382500E0,-6.042459299E-1,-5.267727345E-1,-2.212198148E0,2.352960540E0
1.939444500E0,-7.740440293E-1,-6.870890620E-1,-2.608645801E0,2.806469037E0
1.949506500E0,-9.723910128E-1,-1.334640860E0,-2.640403199E0,3.114247832E0
1.959568500E0,-1.057197128E0,-1.843397300E0,-2.798710715E0,3.514051940E0
1.969630500E0,-1.328778588E0,-1.764592620E0,-2.921919150E0,3.662929316E0
1.979692500E0,-1.086577852E0,-1.158463229E0,-2.932636512E0,3.335122995E0
1.989754500E0,-3.907725649E-1,-6.049725196E-1,-2.660588956E0,2.756343328E0
1.999816500E0,-7.100350711E-2,-2.417125661E-1,-1.441100677E0,1.462955099E0
2.009878500E0,1.117251980E-1,8.083863348E-2,-2.393809158E-1,2.762618818E-1
2.019940500E0,2.701856923E-1,4.409827519E-1,4.625018942E-1,6.938112841E-1
2.030002500E0,1.753928980E-1,1.884062784E0,1.207508504E0,2.244667466E0
2.040064500E0,-3.694714507E-1,3.348662690E0,5.955348212E-1,3.421215089E0
2.050126500E0,-5.163195940E-1,2.665669895E0,8.611112630E-1,2.848489866E0
2.060187500E0,-1.950619447E-1,1.625253910E0,1.166603138E0,2.010090126E0
2.070249500E0,1.965117618E-1,1.877293901E0,8.535683548E-1,2.071576260E0
2.080311500E0,1.081404528E-1,2.441316177E0,3.980100292E-1,2.475910139E0
2.090373500E0,-2.965715088E-1,2.130098124E0,1.028907056E0,2.384097818E0
2.100435500E0,-8.881897187E-1,1.941211423E0,1.626559739E0,2.683818055E0
2.110497500E0,-1.331340399E0,1.891059709E0,2.017313958E0,3.068897145E0
2.120559500E0,-8.207713223E-1,1.404146712E0,2.422815440E0,2.918103530E0
2.130621500E0,2.692088784E-1,8.652146928E-1,2.142624468E0,2.326351112E0
2.140683500E0,2.194259913E0,-3.704160684E-1,1.357266807E0,2.606560534E0
2.150745500E0,2.155934923E0,-2.036583750E-1,-1.512394023E-1,2.170807565E0
2.160807500E0,1.380990130E0,-2.356255781E-1,-6.753645176E-1,1.555239655E0
2.170869500E0,8.910571933E-3,4.718932535E-1,-1.014172073E0,1.118618628E0
2.180931500E0,-6.611575377E-1,8.948729400E-1,-4.661844707E-1,1.206339434E0
2.190993500E0,-4.384686685E-1,8.917913112E-1,-2.374776471E-1,1.021734872E0
2.201054500E0,-8.006215248E-1,7.187998281E-1,-1.397161775E0,1.763442384E0
2.211116500E0,-1.317928202E0,-2.883631875E-1,-1.630945736E0,2.116618073E0
2.221178500E0,-3.130774677E-1,-9.134214775E-1,-7.256552500E-1,1.207862508E0
2.231240500E0,3.074477684E-1,-5.725388549E-1,-5.716571313E-1,8.655153069E-1
2.241302500E0,4.310543990E-1,-3.755097972E-1,-7.050941008E-1,9.077296920E-1
2.251364500E0,5.151180643E-1,-4.217353991E-1,4.717358172E-2,6.674074571E-1
2.261426500E0,1.031363472E0,7.096544905E-1,1.162462140E0,1.708402275E0
2.271488500E0,1.091897649E0,1.895524642E0,1.818555989E0,2.844714402E0
2.281550500E0,7.003180951E-1,2.431181344E0,1.407918313E0,2.895396715E0
2.291612500E0,-5.212731358E-1,2.688863168E0,1.477380896E-1,2.742906736E0
2.301674500E0,-2.090086943E0,2.632343981E0,-9.335617733E-1,3.488443184E0
2.311736500E0,-3.248368323E0,2.560036435E0,-1.767395775E0,4.497707320E0
2.321798500E0,-3.576908460E0,2.316169243E0,-2.345595941E0,4.864230095E0
2.331860500E0,-3.504128752E0,2.212008259E0,-1.550369934E0,4.424426040E0
2.341921500E0,-1.198860180E0,2.961322660E0,-3.023478270E0,4.398649619E0
2.351983500E0,2.640116977E0,4.112919796E0,-5.033368018E0,7.015776543E0
2.362045500E0,2.972663627E0,4.385031670E0,-2.358057527E0,5.798764272E0
2.372107500E0,2.664441395E0,3.301423911E0,-9.004378814E-1,4.336984686E0
2.382169500E0,2.326226454E0,1.979843831E0,-5.458223784E-1,3.103068349E0
2.392231500E0,1.954198528E0,1.363330370E0,5.643463576E-1,2.448682992E0
2.402293500E0,1.496805785E0,9.168559858E-1,1.445567949E0,2.273921536E0
2.412355500E0,1.210145745E0,5.785229319E-1,2.099002485E0,2.490974295E0
2.422417500E0,9.592472760E-1,2.385345313E-1,2.074616672E0,2.298061878E0
2.432479500E0,6.212633009E-1,-1.453535950E-1,1.492331057E0,1.623005773E0
2.442541500E0,7.726069298E-1,-3.169798994E-1,1.302307073E0,1.547062195E0
2.452603500E0,1.281703385E0,-4.938847777E-1,1.525671296E0,2.052890315E0
2.462665500E0,1.724707008E0,-8.093505406E-1,2.025035207E0,2.780365111E0
2.472727500E0,1.952005384E0,-1.133029887E0,2.636191449E0,3.470387169E0
2.482788500E0,2.033589391E0,-1.427080808E0,3.085815436E0,3.961603507E0
2.492850500E0,2.165948134E0,-1.769027733E0,3.252382144E0,4.289379915E0
2.502912500E0,1.998550536E0,-1.915285892E0,3.318619988E0,4.321546357E0
2.512974500E0,1.680693554E0,-1.934562408E0,3.263979512E0,4.149798162E0
2.523036500E0,1.430604925E0,-1.988085482E0,2.870513354E0,3.773454816E0
2.533098500E0,9.443731289E-1,-1.865697411E0,2.169280170E0,3.013045617E0
2.543160500E0,5.577604924E-1,-1.516528881E0,1.522103909E0,2.219855159E0
2.553222500E0,5.896864361E-1,-1.142925130E0,9.700127310E-1,1.610879463E0
2.563284500E0,7.397661893E-1,-1.064147640E0,8.157140654E-1,1.531356801E0
2.573346500E0,9.429674582E-1,-9.875432682E-1,7.390097058E-1,1.552599330E0
2.583408500E0,1.281889473E0,-6.724110889E-1,8.572708118E-1,1.682346735E0
2.593470500E0,1.417138202E0,-3.907594818E-1,1.120035912E0,1.848094722E0
2.603532500E0,1.222700155E0,-4.391671184E-1,1.149909922E0,1.734980189E0
2.613594500E0,9.420931533E-1,-5.144541129E-1,1.378114470E0,1.746826275E0
2.623655500E0,5.935689873E-1,-5.295975244E-1,1.630632910E0,1.814321186E0
2.633717500E0,1.027963901E-1,-5.097234231E-1,1.502360786E0,1.589802817E0
2.643779500E0,-3.957951039E-1,-4.968621799E-1,1.015543245E0,1.197853861E0
2.653841500E0,-6.834781140E-1,-5.012563625E-1,2.654349393E-1,8.881756472E-1
2.663903500E0,-8.977458233E-1,-5.277617911E-1,-3.894444430E-1,1.111821499E0
2.673965500E0,-9.212799892E-1,-6.101353186E-1,-7.546697187E-1,1.338113713E0
2.684027500E0,-6.772873744E-1,-6.366749534E-1,-1.100039604E0,1.440194541E0
2.694089500E0,-2.889419156E-1,-4.066668320E-1,-1.188544815E0,1.288993452E0
2.704151500E0,8.275856674E-2,-1.797609508E-1,-1.127906849E0,1.145136167E0
2.714213500E0,3.305428085E-1,-3.280989647E-1,-9.992312676E-1,1.102438481E0
2.724275500E0,3.870877227E-1,-6.149472848E-1,-7.406422484E-1,1.037568315E0
2.734337500E0,3.680369094E-1,-6.961174554E-1,-6.150399631E-1,9.991520578E-1
2.744399500E0,3.000139108E-1,-5.306704885E-1,-8.037565094E-1,1.008783446E0
2.754460500E0,2.674221155E-1,-2.928513640E-1,-1.001056184E0,1.076749735E0
2.764522500E0,3.010032597E-1,-2.401775989E-1,-1.133404402E0,1.197035413E0
2.774584500E0,4.646019217E-1,-2.348472771E-1,-1.336103395E0,1.433938796E0
2.784646500E0,7.904002994E-1,2.842916250E-2,-1.445018896E0,1.647307033E0
2.794708500E0,9.825322044E-1,3.894780645E-1,-1.604867154E0,1.921629849E0
2.804770500E0,8.712918502E-1,5.402844805E-1,-1.878084737E0,2.139686680E0
2.814832500E0,7.822206295E-1,6.938504899E-1,-2.022363614E0,2.276675691E0
2.824894500E0,7.173317385E-1,9.351998708E-1,-2.185821358E0,2.483340216E0
2.834956500E0,9.518705750E-1,1.317070415E0,-2.341186556E0,2.849892377E0
2.845018500E0,1.654926336E0,1.492206511E0,-2.177954514E0,3.115918374E0
2.855080500E0,2.143184046E0,1.356374229E0,-1.762647251E0,3.088675159E0
2.865142500E0,2.127890069E0,1.405480901E0,-1.513886817E0,2.965661141E0
2.875204500E0,1.901819755E0,1.396976710E0,-1.360994992E0,2.724108969E0
2.885266500E0,1.625294986E0,1.061481018E0,-1.102167406E0,2.232285541E0
2.895327500E0,1.395790018E0,6.295024663E-1,-4.767363560E-1,1.603677238E0
2.905389500E0,1.272804362E0,6.127729976E-1,1.716046697E-1,1.423014354E0
2.915451500E0,1.374013817E0,5.813477218E-1,7.625260377E-1,1.675507416E0
2.925513500E0,1.404184281E0,3.791264462E-1,1.340311051E0,1.977853399E0
2.935575500E0,1.552499490E0,5.806109726E-2,1.763117952E0,2.349938440E0
2.945637500E0,1.867414738E0,-3.839106381E-2,2.151951361E0,2.849492295E0
2.955699500E0,2.176060016E0,8.461915076E-2,2.516538706E0,3.327967045E0
2.965761500E0,2.369299384E0,3.496576488E-2,2.728512552E0,3.613804494E0
2.975823500E0,2.408759319E0,-2.766130614E-1,3.540905984E0,4.291462621E0
2.985885500E0,1.402801999E0,-1.061536274E0,6.000915563E0,6.253455069E0
2.995947500E0,-1.873470699E0,-3.127050585E0,1.292190220E1,1.342623903E1
3.006009500E0,-4.459345104E0,-4.785307496E0,1.667985157E1,1.791653915E1
3.016071500E0,-8.903128427E-1,-1.791119099E0,8.536541335E0,8.767742158E0
3.026132500E0,3.120349091E0,1.657410818E0,1.017191575E0,3.676719703E0
3.036194500E0,3.824366720E0,2.592428548E0,-1.914726314E0,5.001264184E0
3.046256500E0,2.343637124E0,2.022247839E0,-9.354293740E-1,3.233751599E0
3.056318500E0,8.993438673E-1,8.278482074E-1,9.927718484E-1,1.574721559E0
3.066380500E0,6.593390536E-1,-6.842002451E-2,1.321501435E0,1.478436786E0
3.076442500E0,-1.289257257E0,-1.061834482E0,2.526089256E0,3.028333480E0
3.086504500E0,-2.911040990E0,-1.510887195E0,4.308599499E0,5.414884062E0
3.096566000E0,5.954710865E-1,-4.180285567E-1,1.156910501E0,1.366665868E0
3.106628000E0,2.668763949E0,5.647357821E-1,-1.801614851E0,3.269104401E0
3.116690000E0,2.023628367E0,8.490928960E-1,-2.174776552E0,3.089608966E0
3.126752000E0,5.353640485E-1,2.138589889E-1,-1.752837085E0,1.845206812E0
3.136814000E0,-8.271851331E-1,-5.752712953E-1,-9.598365292E-1,1.391566912E0
3.146876000E0,-1.264191998E0,-5.999146780E-1,-4.146552980E-2,1.399928005E0
3.156938000E0,-1.194140015E0,-1.431322378E-1,2.944283581E-1,1.238202436E0
3.166999000E0,-1.311486032E0,2.489577779E-1,6.430261990E-1,1.481707893E0
3.177061000E0,-1.869953599E0,3.389604601E-1,5.950242130E-1,1.991400128E0
3.187123000E0,-2.858323663E0,1.921827757E-1,8.677656868E-1,2.993320175E0
3.197185000E0,-3.489797811E0,7.477594793E-2,1.235942345E0,3.702949322E0
3.207247000E0,-3.656310725E0,-1.623233843E-1,1.172570806E0,3.843160066E0
3.217309000E0,-3.311869377E0,-7.118400335E-2,5.186801881E-1,3.352994941E0
3.227371000E0,-2.577950842E0,2.529666290E-1,-8.284042776E-2,2.591656844E0
3.237433000E0,-1.770774881E0,5.481027925E-1,-1.449799579E-1,1.859322333E0
3.247495000E0,-1.227603630E0,7.753258851E-1,1.761467868E-1,1.462589687E0
3.257557000E0,-9.637544560E-1,9.118270880E-1,5.123903382E-1,1.422250030E0
3.267619000E0,-8.896971309E-1,1.023413890E0,8.554043806E-1,1.603325802E0
3.277681000E0,-1.111080902E0,7.649757287E-1,7.650600748E-1,1.550808032E0
3.287743000E0,-1.236578522E0,6.234304252E-1,6.094845235E-1,1.513031170E0
3.297805000E0,-1.237027588E0,8.463008505E-1,3.719051349E-1,1.544271936E0
3.307866000E0,-1.522613202E0,8.504041341E-1,1.330376047E-1,1.749067511E0
3.317928000E0,-1.763271149E0,7.715570623E-1,1.243977588E-1,1.928704293E0
3.327990000E0,-1.988487185E0,5.937461579E-1,2.883817524E-1,2.095180140E0
3.338052000E0,-2.223437666E0,4.180934608E-1,8.883557796E-1,2.430566433E0
3.348114000E0,-2.331722837E0,3.259682393E-1,1.448266147E0,2.764174653E0
3.358176000E0,-2.413126604E0,1.424381733E-2,1.801490744E0,3.011436832E0
3.368238000E0,-2.394928315E0,-4.790126771E-1,2.017968262E0,3.168174661E0
3.378300000E0,-2.208373484E0,-5.536687571E-1,2.067213804E0,3.075196815E0
3.388362000E0,-2.031777046E0,-8.026414454E-1,1.820922064E0,2.843959989E0
3.398424000E0,-2.000911349E0,-1.417070667E0,1.443822848E0,2.845410325E0
3.408486000E0,-1.835418189E0,-1.805607914E0,9.892407149E-1,2.758183653E0
3.418548000E0,-1.132184672E0,-1.522390423E0,4.234091645E-1,1.943911020E0
3.428610000E0,-2.514407980E-1,-1.061234558E0,-2.630051288E-1,1.121879209E0
3.438671000E0,2.806581652E-1,-8.735447824E-1,-6.180498174E-1,1.106270794E0
3.448733000E0,6.193651485E-1,-1.079538097E0,-7.707682729E-1,1.463932861E0
3.458795000E0,9.405766779E-1,-1.144856758E0,-6.688618290E-1,1.625656061E0
3.468857000E0,1.695491980E0,-7.728908122E-1,-7.046070278E-1,1.992115540E0
3.478919000E0,2.731513928E0,-3.539079899E-1,-1.210450823E0,3.008589437E0
3.488981000E0,3.909125619E0,1.187891096E-1,-2.000986486E0,4.393099233E0
3.499043000E0,4.999886861E0,5.348530018E-1,-2.622092058E0,5.671005477E0
3.509105000E0,5.511233472E0,9.204359436E-1,-2.937261660E0,6.312559129E0
3.519167000E0,5.448311584E0,1.049838919E0,-2.955121395E0,6.286414187E0
3.529229000E0,5.142352517E0,8.331083626E-1,-2.657401347E0,5.848045902E0
3.539291000E0,4.628160651E0,4.176806474E-1,-2.100046505E0,5.099463056E0
3.549353000E0,4.018774361E0,1.269027060E-1,-1.671024306E0,4.354190383E0
3.559415000E0,3.393849095E0,1.362366164E-1,-1.339512614E0,3.651173255E0
3.569477000E0,2.681990350E0,3.840538949E-1,-1.262422923E0,2.989026810E0
3.579538000E0,1.956437427E0,4.736320692E-1,-1.396749546E0,2.450078373E0
3.589600000E0,1.279393589E0,5.628635037E-1,-1.943424156E0,2.393858962E0
3.599662000E0,7.353306377E-1,6.138716894E-1,-1.808213434E0,2.046261327E0
3.609724000E0,3.189480722E-2,1.683957177E-1,-7.021346788E-1,7.227499593E-1
3.619786000E0,-7.342541653E-1,-2.047455186E-1,-7.731948674E-2,7.661776619E-1
3.629848000E0,-1.557420507E0,-4.570423490E-1,9.488162819E-1,1.880079435E0
3.639910000E0,-2.559692912E0,-1.000734879E0,2.644002745E0,3.813692255E0
3.649972000E0,-3.082660278E0,-1.376403282E0,3.925576760E0,5.177589525E0
3.660034000E0,-3.430287774E0,-1.463230049E0,5.737701396E0,6.843181548E0
3.670096000E0,-4.592604902E0,-1.731523692E0,8.858762094E0,1.012757917E1
3.680158000E0,-2.343851717E0,-1.591692500E0,3.772213064E0,4.717702543E0
3.690220000E0,-1.204204828E-1,4.239576334E-1,4.897785705E-1,6.588810331E-1
3.700282000E0,-1.085804558E-1,9.962345695E-1,3.788030952E-1,1.071337864E0
3.710343000E0,-5.807600766E-1,3.391852856E-1,4.705378689E-1,8.208135054E-1
3.720405000E0,-6.016913545E-1,-2.657898653E-1,3.656293184E-1,7.525699549E-1
3.730467000E0,-3.072290826E-1,-7.115038186E-1,-2.800852843E-1,8.240601674E-1
3.740529000E0,-1.534239221E-1,-1.233611060E0,-9.536877434E-1,1.566797836E0
3.750591000E0,8.752346277E-2,-1.433045260E0,-1.391599903E0,1.999457267E0
3.760653000E0,1.651557755E-1,-1.380515629E0,-1.410471353E0,1.980537621E0
3.770715000E0,4.776531994E-2,-1.419274482E0,-1.106758786E0,1.800426781E0
3.780777000E0,-1.910437381E-1,-1.483767809E0,-7.415620154E-1,1.669724182E0
3.790839000E0,-4.332956368E-1,-1.432681271E0,-5.403821290E-1,1.591330757E0
3.800901000E0,-6.338370073E-1,-1.321963073E0,-6.674481185E-1,1.610845340E0
3.810963000E0,-5.616016746E-1,-8.434313294E-1,-1.261305227E0,1.617919567E0
3.821025000E0,-2.080421788E-1,-9.282893389E-2,-1.796981079E0,1.811364059E0
3.831087000E0,-9.090958536E-2,5.161606228E-1,-2.388734359E0,2.445554780E0
3.841149000E0,1.040921330E-2,5.567660272E-1,-2.774045405E0,2.829385918E0
3.851210000E0,4.091928291E-1,5.042551070E-1,-1.426432790E0,1.567297830E0
3.861272000E0,5.047445190E-1,4.548233306E-1,2.420167821E0,2.513731007E0
3.871334000E0,-3.261021405E-1,-2.421285224E-1,5.183460782E0,5.199349431E0
3.881396000E0,-5.897940248E-1,1.193074653E-1,1.600108690E0,1.709514282E0
3.891458000E0,-7.416058695E-1,1.372533887E0,-1.077044332E0,1.895746035E0
3.901520000E0,-1.168335668E0,1.823706216E0,-8.922044901E-1,2.342422133E0
3.911582000E0,-1.406788046E0,1.787181876E0,2.911287012E-1,2.292995330E0
3.921644000E0,-1.254420131E0,1.605779612E0,1.266537316E0,2.399211287E0
3.931706000E0,-1.241958545E0,1.687917789E0,5.673512417E-1,2.171040055E0
3.941768000E0,-1.629614325E0,2.186274810E0,7.697484454E-1,2.833364265E0
3.951830000E0,-1.703073480E0,2.623996789E0,1.031657587E0,3.293954432E0
3.961892000E0,-1.389110743E0,2.033220432E0,5.634218762E-1,2.526075650E0
3.971954000E0,-1.155364789E0,1.773759300E0,2.455082130E-1,2.131047661E0
3.982016000E0,-1.489941884E0,1.472601966E0,-4.049705547E-1,2.133655202E0
3.992077000E0,-2.643219218E0,1.043421600E0,-7.438909614E-1,2.937466635E0
4.002139000E0,-2.529846384E0,5.904775643E-1,-1.042966102E0,2.799386499E0
4.012201000E0,-3.298750564E0,-4.851259410E-2,-6.471324062E-1,3.361976964E0
4.022263000E0,-2.840683199E0,-3.493378061E-1,4.960544785E-2,2.862512644E0
4.032325000E0,-5.311832893E-1,-1.079103649E-1,1.851000434E-1,5.727672824E-1
4.042387000E0,2.462266604E0,4.097535771E-1,8.361565161E-1,2.632453712E0
4.052449000E0,4.069180868E0,5.266821027E-1,1.157239991E0,4.263194973E0
4.062511000E0,4.246980078E0,4.487381333E-1,9.192302477E-1,4.368431062E0
4.072573000E0,3.457646896E0,-2.389429593E-1,6.111240828E-1,3.519359095E0
4.082635000E0,1.691755609E0,-1.061508207E0,1.072157156E0,2.266794583E0
4.092697292E0,-2.451380843E-1,-1.485174065E0,1.879105661E0,2.407669572E0
4.102759292E0,-1.144755017E0,-1.299919070E0,2.233541654E0,2.826475183E0
4.112821292E0,-9.439932060E-1,-3.724851787E-1,2.086861911E0,2.320530331E0
4.122883292E0,-5.979304254E-1,2.043894231E-1,1.863688892E0,1.967900434E0
4.132944292E0,-3.344081104E-2,4.238599849E-1,1.298521585E0,1.366357890E0
4.143006292E0,4.181086636E-1,1.160046655E-1,5.493761699E-1,7.000615066E-1
4.153068292E0,-3.268657869E-1,-1.378651244E0,-8.405021667E-2,1.419360748E0
4.163130292E0,-9.532394081E-1,-2.832371966E0,1.673848072E-1,2.993161205E0
4.173192292E0,-1.064134777E0,-2.307187920E0,-5.971796429E-1,2.610004300E0
4.183254292E0,-4.334348005E-1,-2.515940536E0,-1.343430687E0,2.884896621E0
4.193316292E0,1.932855606E-1,-2.615995751E0,-5.377333403E-1,2.677676273E0
4.203378292E0,-4.150412142E-2,-2.727559456E0,-1.658432619E-1,2.732911848E0
4.213440292E0,3.491436785E-1,-2.875333214E0,7.987950008E-1,3.004582475E0
4.223502292E0,1.018939308E0,3.419089186E-1,2.542633952E0,2.760457650E0
4.233564292E0,2.046831580E0,3.551651412E0,-8.162901624E-1,4.179722108E0
4.243626292E0,1.867738089E0,3.973531530E0,-4.748615048E0,6.467359837E0
4.253688292E0,6.382235885E-1,3.672207550E0,-5.754218026E0,6.855907142E0
4.263750292E0,-4.388864520E-1,3.153374750E0,-5.011655552E0,5.937430842E0
4.273811292E0,-8.228312963E-1,3.353774618E0,-3.146848673E0,4.671992305E0
4.283873292E0,-4.920923138E-1,3.437626029E0,-5.562678444E-1,3.516939220E0
4.293935292E0,-4.042469618E-1,3.328152704E0,3.323898854E0,4.721050690E0
4.303997292E0,-3.795608944E-1,2.895686202E0,6.171734952E0,6.827838411E0
4.314059292E0,6.288008004E-1,2.177040594E0,5.123564243E0,5.602303700E0
4.324121292E0,1.654461775E0,1.757170749E0,1.986977434E0,3.126175320E0
4.334183292E0,1.082569878E0,1.901411034E0,9.109494209E-2,2.189890351E0
4.344245292E0,1.308541374E0,2.026120450E0,-1.124766895E0,2.661305163E0
4.354307292E0,1.783117769E0,1.665166565E0,-1.075677180E0,2.666340200E0
4.364369292E0,1.773691472E0,1.364947709E0,-7.156255209E-1,2.349719893E0
4.374431292E0,1.762167780E0,7.711805016E-1,-1.088629932E0,2.210219396E0
4.384493292E0,1.804271533E0,-9.191413701E-2,-1.485485721E0,2.338912526E0
4.394555292E0,2.028684746E0,-2.101957083E-1,-1.160374099E0,2.346531927E0
4.404617292E0,1.978129427E0,3.910231912E-1,-9.833198243E-1,2.243393199E0
4.414679292E0,4.729640248E-1,-2.685479969E-1,2.367999182E-1,5.932008064E-1
4.424740292E0,-4.278808227E-1,-1.653653398E0,-8.106732539E-1,1.890725438E0
4.434802292E0,-1.697613642E0,-1.492156810E0,-1.264374431E0,2.589800518E0
4.444864292E0,-1.646180656E0,-1.643073446E0,-1.744189931E0,2.907197897E0
4.454926292E0,-1.174974597E0,-1.757656653E0,-2.019583848E0,2.923805932E0
4.464988292E0,-1.268925319E0,-1.120276818E0,-6.878868415E-1,1.827123400E0
4.475050292E0,-1.238054359E0,1.373049027E-1,-4.594338602E-1,1.327671158E0
4.485112292E0,-1.023908857E0,2.187193699E0,-5.396535659E-1,2.474556849E0
4.495174292E0,-1.100399208E-1,2.473056471E0,-1.329709464E0,2.810025686E0
4.505236292E0,1.010761392E0,2.576827008E-1,-7.504164541E-1,1.284976195E0
4.515298292E0,7.344699275E-1,-4.607372046E-1,7.636123042E-1,1.155347825E0
4.525360292E0,1.398531193E-1,2.002022320E-1,9.226741116E-1,9.544460932E-1
4.535422292E0,-4.901498687E-1,-1.185960930E0,6.568615884E-3,1.283274471E0
4.545484292E0,-5.485378253E-1,-2.377008938E0,5.862813100E-2,2.440184930E0
4.555546292E0,-1.239658250E0,-3.811870635E0,-3.755140364E-1,4.025931086E0
4.565608292E0,-1.439655830E0,-5.222861075E0,-1.193861249E0,5.547629349E0
4.575669292E0,-1.594553250E-1,-4.284856002E0,-3.124138087E-1,4.299188220E0
4.585731292E0,8.635279173E-1,-1.952004653E0,1.352428382E0,2.526868647E0
4.595793292E0,5.456095397E-2,3.272014171E-1,1.403562575E0,1.442229374E0
4.605855292E0,-5.331584787E-1,1.943180619E0,2.997778295E-1,2.037173441E0
4.615917292E0,-6.563604820E-1,2.421927248E0,-7.022605401E-1,2.605707302E0
4.625979292E0,-3.597587138E-1,1.334184338E0,-9.544100207E-1,1.679396519E0
4.636041292E0,-1.907010913E-1,-2.723141885E-1,-6.174887770E-1,7.012947406E-1
4.646103292E0,-4.808568889E-1,-3.879803002E-1,7.676049292E-2,6.226108208E-1
4.656165292E0,-9.550239784E-1,-3.506376421E-1,8.335483655E-2,1.020767155E0
4.666227292E0,-1.148170960E0,-5.854857963E-1,8.566463292E-3,1.288861341E0
4.676289292E0,-9.394692153E-1,-3.935497731E-1,3.074290574E-1,1.063953221E0
4.686351292E0,-3.743048322E-1,1.304262382E-1,7.003332978E-1,8.047246977E-1
4.696413292E0,1.927680820E-1,1.115406087E0,2.556367600E-1,1.160448373E0
4.706475292E0,4.355257648E-1,2.138750103E0,-8.245493545E-1,2.333198734E0
4.716536292E0,1.097773808E-1,1.396138512E0,-1.862642971E0,2.330384659E0
4.726598292E0,-1.213583761E0,-7.894805324E-1,-1.459439884E0,2.055730973E0
4.736660292E0,-1.517127344E0,-8.094516975E-1,6.136524189E-1,1.825775649E0
4.746722292E0,-9.335261053E-1,-2.505993837E-1,8.294348493E-1,1.273669192E0
4.756784292E0,2.805552542E-1,-4.332605535E-1,6.184295940E-1,8.055315764E-1
4.766846292E0,4.880571502E-1,-4.180291414E-2,3.651214877E-1,6.109508706E-1
4.776908292E0,3.734078693E-1,2.994774288E-1,-3.311278224E-1,5.820359113E-1
4.786970292E0,-5.278632402E-2,7.467023027E-1,-6.383835098E-1,9.838110746E-1
4.797032292E0,-5.211453742E-1,7.256593430E-1,-7.562598690E-1,1.170513978E0
4.807094292E0,-6.489637542E-1,-3.090557528E-1,-4.235261089E-1,8.342923813E-1
4.817156292E0,-7.216721267E-1,-5.561883223E-1,-3.991122293E-1,9.947093444E-1
4.827218292E0,9.610249758E-2,-1.839621753E-1,-1.988515252E-1,2.874364296E-1
4.837280292E0,1.082435392E0,3.023402256E-1,5.191292542E-1,1.237970586E0
4.847342292E0,1.460764278E0,7.712418973E-1,1.116816728E0,1.993972403E0
4.857404292E0,7.554666942E-1,8.874067765E-1,1.050818328E0,1.569216324E0
4.867465292E0,-2.354147494E-2,2.678393143E-1,1.058159215E0,1.091784330E0
4.877527292E0,-6.230670208E-1,-1.499378121E-1,6.218692186E-1,8.929810664E-1
4.887589292E0,-1.102994202E0,9.335664511E-2,-2.975972566E-1,1.146244215E0
4.897651292E0,-1.006520991E0,1.967377567E-1,-8.018775067E-1,1.301843995E0
4.907713292E0,1.626461506E-2,2.001595473E-1,-5.536222717E-1,5.889193509E-1
4.917775292E0,7.730437168E-1,1.244796199E-1,3.999539360E-1,8.792354149E-1
4.927837292E0,8.157865709E-1,-1.355881602E-1,7.078329366E-1,1.088540006E0
4.937899292E0,5.940323791E-1,-3.525631303E-1,4.806557447E-1,8.415492696E-1
4.947961292E0,4.481352854E-1,-4.177625084E-1,1.852351141E-1,6.400490566E-1
4.958023292E0,4.930442405E-1,-2.755441904E-1,1.749902076E-1,5.913026270E-1
4.968085292E0,9.111950040E-2,8.635226548E-2,5.119351324E-1,5.271025108E-1
4.978147292E0,-1.000573204E0,-2.252639830E-2,1.356934100E-2,1.000918729E0
4.988209292E0,-1.217531217E0,8.763222098E-3,-6.577073881E-1,1.383849004E0
4.998271292E0,-4.873274177E-1,5.317457914E-2,-6.160889536E-1,7.873253119E-1
5.008333292E0,8.255216002E-2,1.029653746E-1,-1.550108564E-1,2.035806796E-1
5.018394292E0,3.827441186E-1,2.347703862E-1,2.740192366E-1,5.260197112E-1
5.028456292E0,4.955988890E-1,1.180921215E-1,6.709811524E-1,8.424842519E-1
5.038518292E0,8.216340789E-1,-6.567592621E-3,9.796240917E-1,1.278588696E0
5.048580292E0,9.090291953E-1,1.676355797E-1,1.410441386E0,1.686351289E0
5.058642292E0,5.234193563E-1,1.077255929E-1,4.057210448E-1,6.709561775E-1
5.068704292E0,1.627853143E-1,1.566100699E-1,-7.139403534E-1,7.488234777E-1
5.078766292E0,-6.865306529E-1,-1.670245457E-1,-1.091172009E0,1.299953034E0
5.088828292E0,-1.257546052E0,-8.227412492E-1,-6.918706226E-1,1.654391186E0
5.098890875E0,-1.708324279E0,-1.409785913E0,-6.062691396E-1,2.296395095E0
5.108952875E0,-9.443960792E-1,-8.364102852E-1,-2.772454378E-1,1.291638940E0
5.119014875E0,2.107433000E-1,5.216651917E-2,2.083123201E-1,3.008788908E-1
5.129076875E0,9.427112040E-1,3.511264694E-1,8.689044321E-1,1.329281431E0
5.139138875E0,1.220609191E0,-5.853612506E-1,1.488482419E0,2.011992670E0
5.149200875E0,9.634214571E-1,-7.429290944E-1,1.476264077E0,1.912976782E0
5.159262875E0,-8.590729237E-3,2.244623297E-1,4.597981417E-1,5.117337875E-1
5.169324875E0,-9.678290883E-1,5.522168934E-1,-8.796562922E-1,1.419659056E0
5.179385875E0,-1.050427441E0,-1.147469294E-1,-1.751649516E0,2.045688318E0
5.189447875E0,-6.284698480E-1,-4.223116422E-1,-1.351929761E0,1.549527525E0
5.199509875E0,-3.148184761E-1,1.286615485E-1,-3.814211860E-1,5.110250367E-1
5.209571875E0,2.179052621E-1,5.997483248E-1,4.090139043E-1,7.579400572E-1
5.219633875E0,5.819686961E-1,3.878797281E-1,1.005909373E0,1.225149751E0
5.229695875E0,1.265498266E-1,4.264023542E-1,3.629510012E-1,5.740794854E-1
5.239757875E0,2.113534570E-1,3.692709643E-1,-2.448898700E-1,4.909199296E-1
5.249819875E0,5.166471112E-1,1.114748275E-1,-2.887969047E-1,6.022910649E-1
5.259881875E0,3.583366710E-1,-1.152544677E-2,-4.230948767E-1,5.545694550E-1
5.269943875E0,2.589772743E-1,-2.353767425E-1,-2.488624683E-1,4.294228308E-1
5.280005875E0,8.269424736E-2,-2.082041466E-1,3.954872480E-1,4.545299424E-1
5.290067875E0,-2.518746614E-1,1.947222215E-1,5.843412039E-1,6.654413807E-1
5.300129875E0,-4.908977276E-1,2.817761528E-1,-3.920850456E-1,6.885557801E-1
5.310191875E0,-3.702059340E-1,5.538482666E-2,-1.232569086E0,1.288156227E0
5.320252875E0,2.296084642E-2,2.776550353E-2,-5.397868824E-1,5.409879870E-1
5.330314875E0,3.890667129E-1,5.449955821E-2,-8.583595634E-2,4.021329635E-1
5.340376875E0,1.783868551E-1,1.435491443E-2,-3.145041883E-2,1.817059781E-1
5.350438875E0,-1.072724336E-1,5.221446633E-2,1.362173206E-1,1.810770111E-1
5.360500875E0,2.693280154E-1,-3.253156900E-2,5.549130446E-1,6.176765901E-1
5.370562875E0,4.385411739E-5,1.121870184E-1,4.001857781E-1,4.156135056E-1
5.380624875E0,-4.641549021E-1,3.487454832E-2,-6.620483610E-1,8.092984861E-1
5.390686875E0,-1.331527948E-1,-1.781979901E-1,-4.205729726E-1,4.757791670E-1
5.400748875E0,9.457520485E-2,1.447829068E-2,1.452565312E-1,1.739354769E-1
5.410810875E0,-7.010870039E-2,2.147986364E-1,-1.758959413E-2,2.266342382E-1
5.420872875E0,-2.707190681E-1,-3.459183544E-1,-5.637242138E-2,4.428613458E-1
5.430934875E0,-3.385491085E-1,-4.523903042E-1,-7.727095485E-4,5.650425500E-1
5.440996875E0,-1.808046788E-1,-2.646730471E-1,1.657451749E-2,3.209624096E-1
5.451058875E0,-1.445905334E-1,-1.268348783E-1,-3.950466603E-2,1.963520495E-1
5.461120875E0,-2.505450046E-1,2.869462609E-2,3.431584686E-2,2.545068923E-1
5.471181875E0,-2.291360092E-1,1.789990586E-1,2.663915437E-1,3.943455696E-1
5.481243875E0,1.702066004E-1,2.564892840E-1,5.388998598E-2,3.125078723E-1
5.491305875E0,4.146067661E-1,2.022797477E-1,-2.071650964E-1,5.057007455E-1
5.501367875E0,9.063359678E-2,1.936627060E-1,1.912828892E-2,2.146755319E-1
5.511429875E0,-1.307332170E-1,1.445267987E-1,2.106643626E-1,2.869819563E-1
5.521491875E0,2.659430623E-2,5.458200395E-2,2.341675383E-1,2.419109098E-1
5.531553875E0,9.538445950E-2,-1.592810780E-1,1.929475915E-1,2.677637578E-1
5.541615875E0,4.701161385E-3,-1.727670962E-1,1.509224832E-2,1.734887501E-1
5.551677875E0,-4.498379946E-2,-1.457400960E-1,1.881721705E-2,1.536808558E-1
5.561739875E0,-4.659412265E-2,1.391169548E-2,9.069557726E-2,1.029088688E-1
5.571801875E0,1.026566416E-1,1.749159479E-1,1.577730811E-1,2.569558717E-1
5.581863875E0,1.490326631E-1,1.422931623E-1,2.152555963E-1,2.979816278E-1
5.591925875E0,5.221622050E-2,1.149147445E-1,1.676808956E-1,2.098780954E-1
5.601987875E0,-1.584039956E-2,9.377238214E-2,2.070352882E-1,2.278328082E-1
5.612049875E0,6.452957958E-2,1.432100058E-2,2.253078371E-1,2.348037035E-1
5.622111875E0,9.670739204E-2,-6.974675775E-2,8.667473942E-2,1.474090918E-1
5.632172875E0,-3.033477008E-2,-4.596028447E-2,-3.346566170E-2,6.443986761E-2
5.642234875E0,-3.080751747E-2,4.355590940E-3,1.082670450E-2,3.294376778E-2
5.652296875E0,-2.020505369E-3,1.022409046E-1,4.819801390E-2,1.130501373E-1
5.662358875E0,6.164953351E-2,1.423282456E-1,1.946894771E-1,2.489216483E-1
5.672420875E0,1.801410198E-1,1.746089691E-1,1.944707912E-1,3.174239559E-1
5.682482875E0,1.436055699E-1,1.811134118E-1,1.130480209E-1,2.573023176E-1
5.692544875E0,1.230876902E-1,7.707273424E-2,8.439841837E-2,1.679698749E-1
5.702606875E0,1.568740717E-1,1.406079948E-2,3.379573703E-2,1.610879644E-1
5.712668875E0,1.181137562E-4,-2.715446949E-3,-7.344190568E-2,7.349218402E-2
5.722730875E0,-2.463075274E-1,-5.079651654E-2,-4.347697198E-2,2.552213378E-1
5.732792875E0,-2.552216077E-1,-1.393601990E-1,2.061845183E-2,2.915209335E-1
5.742854875E0,-1.310574451E-1,-1.531151891E-1,1.052121672E-1,2.273541624E-1
5.752916875E0,1.222822362E-1,-1.446747333E-1,2.004662338E-1,2.758086921E-1
5.762978875E0,9.653606862E-2,-2.071428770E-1,2.096182957E-1,3.101083906E-1
5.773040875E0,1.106848687E-2,-1.387251914E-1,3.330091640E-1,3.609186798E-1
5.783101875E0,6.192142904E-2,8.418236375E-2,2.364508760E-1,2.585148942E-1
5.793163875E0,-1.348853248E-1,2.359070849E-1,-8.988749206E-2,2.862271210E-1
5.803225875E0,-2.605095372E-1,2.913059449E-1,-1.223854396E-1,4.095150404E-1
5.813287875E0,-1.047961378E-1,8.790820956E-2,-6.738945276E-2,1.524841702E-1
5.823349875E0,-1.072832510E-1,-4.981827736E-2,-7.608104646E-3,1.185303335E-1
5.833411875E0,3.438104331E-2,3.085985005E-2,4.676456898E-2,6.573668228E-2
5.843473875E0,1.047876593E-1,-4.162106574E-2,1.523240608E-1,1.895135514E-1
5.853535875E0,-3.982392401E-2,-1.965184861E-1,1.787371033E-1,2.686120110E-1
5.863597875E0,-1.534531581E-1,1.219904602E-1,-7.318228930E-2,2.092491137E-1
5.873659875E0,-1.336489311E-1,5.978661060E-2,1.028861448E-1,1.789470156E-1
5.883721875E0,2.908522010E-2,-2.034538686E-2,1.070955554E-1,1.128243891E-1
5.893783875E0,8.052434564E-2,2.106342494E-1,2.482727766E-2,2.268641686E-1
5.903845875E0,3.185212255E-2,3.725945216E-1,7.621816367E-2,3.816417741E-1
5.913907875E0,-6.592940301E-2,1.825155741E-1,2.001943383E-1,2.788124711E-1
5.923969875E0,-1.342099714E-1,-3.601241648E-2,1.871796057E-1,2.331210315E-1
5.934030875E0,-1.856379873E-1,-1.252613926E-1,-6.579287052E-3,2.240427767E-1
5.944092875E0,-2.304370147E-1,-2.190840608E-1,-2.007495314E-2,3.185938593E-1
5.954154875E0,-3.494831094E-1,-4.237184823E-1,1.801030129E-2,5.495454184E-1
5.964216875E0,-3.962152264E-1,-5.253717417E-1,1.725697526E-1,6.802810390E-1
5.974278875E0,-2.473942325E-1,-3.937392229E-1,4.390414032E-1,6.395246951E-1
5.984340875E0,-1.739488184E-2,-4.571791738E-1,5.266426340E-1,6.976158275E-1
5.994402875E0,1.943953621E-1,-2.855528694E-1,4.621001905E-1,5.769459109E-1
6.004464875E0,1.671257025E-1,-2.904399723E-1,2.781421083E-1,4.354875548E-1
6.014526875E0,-2.880513847E-2,-3.847959065E-1,1.840387738E-1,4.275136208E-1
6.024588875E0,-2.443414012E-1,-4.086543006E-1,1.399665552E-1,4.962778398E-1
6.034650875E0,-3.320619151E-1,-5.256722885E-1,1.334992424E-1,6.359390836E-1
6.044712875E0,-1.845960134E-1,-6.038554090E-1,4.161273345E-1,7.562268190E-1
6.054774875E0,1.567129809E-1,-5.359861922E-1,8.241703087E-1,9.955384746E-1
6.064836875E0,5.584953412E-1,-3.995115942E-1,8.753819776E-1,1.112573668E0
6.074898875E0,7.416117167E-1,-2.347756487E-1,9.893155593E-1,1.258512145E0
6.084959875E0,5.245642412E-1,-2.081228703E-1,1.443936284E0,1.550301508E0
6.095021375E0,1.735348356E-1,3.769121057E-1,1.255992886E0,1.322760448E0
6.105083375E0,-1.030726710E-1,8.623157895E-1,6.428557527E-1,1.080498040E0
6.115145375E0,-1.951502377E-1,1.356881475E-1,-1.538051605E-2,2.381836454E-1
6.125207375E0,-6.194528568E-1,-8.542004389E-1,-1.118585511E-1,1.061080848E0
6.135269375E0,-9.572973758E-1,-1.136145576E0,2.289545994E-1,1.503218296E0
6.145331375E0,-8.829251781E-1,-1.311588943E0,7.135959524E-1,1.734658932E0
6.155393375E0,-8.806263453E-1,-8.321353859E-1,1.082017609E0,1.624411945E0
6.165455375E0,-3.731076148E-1,-4.199230546E-1,7.674498318E-1,9.510646184E-1
6.175517375E0,-1.003607324E-1,-6.150335312E-2,3.477763072E-1,3.671556875E-1
6.185579375E0,3.104988456E-2,1.414201730E-1,-3.345206693E-2,1.486028313E-1
6.195641375E0,6.219045943E-1,-7.757267118E-2,-3.843214050E-1,7.351773841E-1
6.205703375E0,7.457360503E-1,-4.707640100E-1,-9.133295301E-1,1.269610901E0
6.215765375E0,2.132099479E-1,-7.832778060E-1,-1.628944526E0,1.820011778E0
6.225827375E0,6.329026222E-3,-1.147433626E0,-1.592925093E0,1.963174555E0
6.235888375E0,-8.910045683E-2,-1.354623281E0,-4.653980201E-1,1.435109209E0
6.245950375E0,-1.709728780E-1,-1.007120331E0,1.117030444E0,1.513697492E0
6.256012375E0,-6.565209880E-1,-2.499158442E-1,2.452969531E0,2.551575446E0
6.266074375E0,-6.974190456E-1,-2.769557083E-1,2.793890855E0,2.892909245E0
6.276136375E0,-3.300981277E-1,-1.206348417E0,1.935192738E0,2.304172782E0
6.286198375E0,8.387246132E-2,-3.072504249E0,8.022426653E-1,3.176619311E0
6.296260375E0,-4.584547439E-1,-4.123207387E0,4.577989787E-1,4.173799206E0
6.306322375E0,-1.311360609E0,-4.666331275E0,-1.927664740E-1,4.850924977E0
6.316384375E0,-1.861516944E0,-5.964020217E0,-1.181196765E0,6.358459584E0
6.326446375E0,-2.991030900E0,-7.170884358E0,-3.273076610E0,8.430947682E0
6.336508375E0,-5.376757452E0,-6.222887564E0,-7.192444797E0,1.092543420E1
6.346570375E0,-5.641833372E0,-5.976221602E0,-4.555159918E0,9.396541402E0
6.356632375E0,-5.169873022E0,-5.191202495E0,-3.552310686E0,8.142179169E0
6.366694375E0,-4.361751858E0,-2.106316182E0,-2.140210883E0,5.295465018E0
6.376755375E0,-3.752821066E0,5.578588718E-1,1.408611792E-1,3.796671483E0
6.386817375E0,-2.735383615E0,1.567414568E0,2.173064488E0,3.829010475E0
6.396879375E0,3.845964434E-1,3.207440445E0,1.310204205E1,1.349440975E1
6.406941375E0,3.118579724E0,-1.626302462E0,1.820787871E1,1.854446673E1
6.417003375E0,2.190428379E0,-4.103963031E0,8.215120475E0,9.440799408E0
6.427065375E0,-1.164496386E-1,8.572509313E-1,-1.128396846E0,1.421871696E0
6.437127375E0,-8.178442061E-2,4.738882942E0,-6.053933437E0,7.688550597E0
6.447189375E0,1.421753410E-1,3.477066668E0,-1.019936609E1,1.077670057E1
6.457251375E0,-2.203393849E-1,5.387799919E-1,-4.654223153E0,4.690482543E0
6.467313375E0,1.576892612E0,7.092448053E0,4.429333100E-1,7.279120800E0
6.477375375E0,4.793951727E0,1.160423450E1,6.677888650E-1,1.257323241E1
6.487437375E0,5.826577905E0,1.215942879E1,1.197264183E-1,1.348388123E1
6.497499375E0,4.487141305E0,8.358511160E0,-1.104600433E-1,9.487431018E0
6.507561375E0,2.340971232E0,3.953697190E0,1.219041845E0,4.753728094E0
6.517622375E0,-4.101118653E-1,1.212799650E0,1.930951460E0,2.316818567E0
6.527684375E0,-1.818108530E0,-8.792446482E-1,1.016931082E0,2.261136574E0
6.537746375E0,-1.496135401E0,-1.235896152E0,-4.155297491E-1,1.984571845E0
6.547808375E0,-9.607327612E-1,-6.533392256E-1,-1.068035162E0,1.578150401E0
6.557870375E0,-1.096949351E-1,2.849184465E-1,-1.099071305E0,1.140688053E0
6.567932375E0,2.683595704E-1,4.070954329E-1,-8.098326436E-1,9.452896176E-1
6.577994375E0,-5.393471718E-3,5.005047029E-1,-3.891941822E-1,6.340395560E-1
6.588056375E0,-5.724782266E-1,1.707350718E0,-3.879539877E-2,1.801189295E0
6.598118375E0,-7.371793811E-1,1.183720277E0,1.654133454E-1,1.404275154E0
6.608180375E0,-8.252394721E-1,1.220430851E-1,3.134797561E-1,8.911701624E-1
6.618242375E0,-8.563111375E-1,4.533697128E-1,-1.153319433E-1,9.757634539E-1
6.628304375E0,-4.640274328E-1,2.050788099E-1,-3.496231502E-1,6.161291454E-1
6.638366375E0,1.703349468E-1,4.964946824E-1,-3.705304545E-1,6.425058611E-1
6.648428375E0,1.640652698E-1,5.222616076E-2,-2.391078508E-1,2.946481782E-1
6.658490375E0,2.618470877E-1,3.059555590E-1,1.598079121E-1,4.332565871E-1
6.668551375E0,2.539907688E-1,5.831989503E-1,-6.619515896E-2,6.395421216E-1
6.678613375E0,9.607735455E-2,8.414271963E-1,-6.944504142E-2,8.497371349E-1
6.688675375E0,-1.686655667E-1,1.667353424E0,-1.034927934E-1,1.679055172E0
6.698737375E0,-2.189633158E-1,2.581212419E0,-6.021111846E-2,2.591182716E0
6.708799375E0,-3.306106362E-1,2.828905152E0,5.417673343E-1,2.899227414E0
6.718861375E0,-3.762997560E-1,2.667455342E0,1.138062732E0,2.924398449E0
6.728923375E0,-9.380568203E-1,2.929946208E0,1.668263251E0,3.499662506E0
6.738985375E0,-1.229551484E0,3.404870512E0,1.654933792E0,3.980420318E0
6.749047375E0,-8.836150034E-1,3.710176445E0,1.297309311E0,4.028547651E0
6.759109375E0,-7.139179878E-1,4.121329846E0,8.396225993E-1,4.266146352E0
6.769171375E0,-7.646671419E-1,3.737251977E0,3.154232244E-1,3.827696434E0
6.779233375E0,-6.211144893E-1,1.545862901E0,-6.363662204E-1,1.783378054E0
6.789295375E0,3.045354165E-1,-2.322133403E0,-1.233500109E0,2.646992233E0
6.799356375E0,1.340679864E0,-4.793854371E0,-1.010687279E0,5.079365216E0
6.809418375E0,1.884104446E0,-5.778232541E0,-9.548579174E-1,6.152200785E0
6.819480375E0,2.412384885E0,-5.727520809E0,-1.119039547E0,6.314771964E0
6.829542375E0,2.736943068E0,-3.152723955E0,-9.199377608E-1,4.275138732E0
6.839604375E0,2.010658511E0,7.022558624E-1,-6.509819207E-1,2.227035789E0
6.849666375E0,4.752473626E-1,1.295575758E0,-2.062131697E-1,1.395313754E0
6.859728375E0,-1.034026001E-1,7.579780734E-1,2.413161980E-1,8.021573192E-1
6.869790375E0,-1.847208515E-2,1.183511531E-1,1.301541965E-1,1.768850707E-1
6.879852375E0,1.294912684E-1,8.887346792E-1,-4.459238684E-1,1.002728984E0
6.889914375E0,1.735269418E-1,1.707135540E-1,-4.836693996E-1,5.414709643E-1
6.899976375E0,2.503672493E-1,-7.298436105E-1,-3.180908704E-1,8.345880763E-1
6.910038375E0,-2.221956566E-2,2.124281752E-1,-5.439116545E-1,5.843452119E-1
6.920100375E0,-7.700125203E-2,4.892400420E-1,-7.776384589E-1,9.219580165E-1
6.930162375E0,-8.693932593E-2,-1.107053339E-2,-7.749712515E-1,7.799111768E-1
6.940223375E0,-3.495930371E-1,1.085629141E-1,-7.512403268E-1,8.356812948E-1
6.950285375E0,-7.128219272E-1,4.822081804E-1,-7.481912962E-1,1.140363997E0
6.960347375E0,-6.419196135E-1,3.035710645E-1,-5.102759850E-1,8.744128100E-1
6.970409375E0,-6.456929679E-1,6.755580604E-2,-3.636830726E-1,7.441428445E-1
6.980471375E0,-1.193463492E-1,-1.041193226E0,-7.836029112E-2,1.050936354E0
6.990533375E0,-3.743986800E-1,-1.313104541E0,-2.247102517E-1,1.383803673E0
7.000595375E0,-3.957078342E-1,8.690003264E-1,-6.758688399E-1,1.169848258E0
7.010657375E0,2.504368311E-1,7.899658513E-1,-6.863917816E-1,1.076056843E0
7.020719375E0,-1.512543127E-1,-4.788776064E-1,-3.570532072E-1,6.161887874E-1
7.030781375E0,-1.010119660E-1,1.651686394E-1,-5.174812165E-1,5.525132633E-1
7.040843375E0,-2.481075928E-1,-2.820954108E-1,-5.361206782E-1,6.546453849E-1
7.050905375E0,-4.580452926E-1,-2.799483132E-1,-3.145068195E-1,6.221664470E-1
7.060967375E0,-4.790578468E-1,-2.479921103E-1,-1.913936940E-1,5.723880270E-1
7.071029375E0,-5.362598419E-1,-4.239699125E-2,-1.086330807E-1,5.487925557E-1
7.081090375E0,-6.745903462E-1,1.755111945E-1,-1.041184455E-1,7.047815018E-1
7.091152375E0,-6.846554509E-1,1.347221875E-1,-1.238586456E-1,7.086918359E-1
7.101214125E0,-5.259205028E-1,6.865566730E-2,-8.277669311E-2,5.368034621E-1
7.111276125E0,-3.294251132E-1,1.654060364E-2,-2.190951705E-2,3.305669731E-1
7.121338125E0,-1.581496418E-1,-5.132685900E-3,1.727793753E-2,1.591734299E-1
7.131400125E0,-2.746084897E-1,-9.541544974E-2,2.531648496E-1,3.854949698E-1
7.141462125E0,-5.706457092E-1,-3.545318878E-1,3.804710135E-1,7.720670806E-1
7.151524125E0,-4.003940852E-1,-6.615972483E-1,6.993240684E-2,7.764772269E-1
7.161586125E0,5.698404014E-2,-6.506910217E-1,-1.946894771E-1,6.815790336E-1
7.171648125E0,-2.453159858E-1,-2.943424040E-1,-4.230714878E-1,5.707949435E-1
7.181710125E0,-9.088663504E-2,3.295473200E-1,-1.734737322E-1,3.833470390E-1
7.191772125E0,-1.185271543E-1,6.876062483E-1,1.425691509E-1,7.121636060E-1
7.201834125E0,-1.534193905E-1,7.577336597E-1,2.788241860E-1,8.218520154E-1
7.211895125E0,-1.364868772E-1,6.141769141E-1,3.267944509E-1,7.089686612E-1
7.221957125E0,-3.674268986E-1,5.308470744E-1,4.599732658E-1,7.927020547E-1
7.232019125E0,-5.190925629E-1,8.685454130E-3,3.031521115E-1,6.011935867E-1
7.242081125E0,-3.445644316E-1,9.051022053E-2,2.313275456E-2,3.570040222E-1
7.252143125E0,-1.862190543E-1,5.988367438E-2,-2.171717289E-1,2.922792338E-1
7.262205125E0,-2.320585938E-1,-1.881932205E-1,-3.122240666E-1,4.321478299E-1
7.272267125E0,-1.844281983E-1,-3.400208527E-1,-3.350746930E-1,5.117645850E-1
7.282329125E0,3.102108702E-2,-2.865311086E-1,-2.974358734E-1,4.141623871E-1
7.292391125E0,1.396315098E-1,-1.369189864E-1,-1.730612111E-1,2.611397139E-1
7.302453125E0,2.924294874E-2,8.913203180E-2,2.640310228E-3,9.384370188E-2
7.312515125E0,-1.416992314E-1,1.648809564E-1,1.080053821E-1,2.427541236E-1
7.322577125E0,-4.494813144E-2,-2.355141521E-2,3.024823129E-2,5.907587642E-2
7.332639125E0,2.255221376E-1,-1.821086079E-1,-1.095300436E-1,3.098719252E-1
7.342701125E0,3.613146579E-1,-3.119933939E-1,-2.527628535E-1,5.401640676E-1
7.352762125E0,2.063565727E-1,-4.333429992E-1,-2.646862033E-1,5.481131054E-1
7.362824125E0,-1.000598931E-1,-5.569133770E-1,-1.377522147E-1,5.823574198E-1
7.372886125E0,-4.789963049E-1,-5.734493029E-1,1.253303897E-1,7.576207954E-1
7.382948125E0,-6.625461052E-1,-3.898139870E-1,3.176859507E-1,8.317731958E-1
7.393010125E0,-3.444989428E-1,4.443474591E-2,4.524277264E-1,5.703900559E-1
7.403072125E0,1.410449280E-1,2.429599965E-1,4.337356398E-1,5.167686492E-1
7.413134125E0,6.152066088E-1,1.106211340E-1,3.319060868E-1,7.077272478E-1
7.423196125E0,9.313627817E-1,5.590288997E-1,3.487755963E-1,1.140874383E0
7.433258125E0,8.475477692E-1,1.582665861E-1,1.466785741E-1,8.745856948E-1
7.443320125E0,7.682509004E-1,-2.234156781E-1,2.640514880E-2,8.005131123E-1
7.453382125E0,6.435428005E-1,-1.147633016E-1,-1.590986449E-1,6.727780691E-1
7.463444125E0,-7.683270603E-2,2.343330145E-1,-7.766195816E-1,8.148332350E-1
7.473506125E0,-7.160438892E-1,-7.330408680E-1,-3.210883870E0,3.370436618E0
7.483568125E0,-1.761000237E0,-1.936054618E0,-4.553553980E0,5.252074178E0
7.493629125E0,-2.255947308E0,-2.181239480E0,-1.270757836E0,3.385547135E0
7.503691125E0,-1.037341080E0,-3.174307197E-1,1.122984663E0,1.561388271E0
7.513753125E0,-5.843144529E-1,2.292833591E0,2.871781615E0,3.720972843E0
7.523815125E0,3.287871820E-1,3.537912794E0,2.372666795E0,4.272525678E0
7.533877125E0,2.874485952E0,4.200994651E0,9.562542325E-1,5.179328885E0
7.543939125E0,1.889624656E0,1.746192017E0,5.418613283E-1,2.629350034E0
7.554001125E0,7.999007092E-1,2.036801559E-1,-1.018820317E-1,8.316890638E-1
7.564063125E0,9.653998625E-1,2.305574673E-1,-1.119022590E-1,9.988372019E-1
7.574125125E0,1.818465211E0,4.557126921E-1,7.027965836E-1,2.002102100E0
7.584187125E0,2.193299947E0,5.104321057E-1,1.272924814E0,2.586782398E0
7.594249125E0,1.552804569E0,6.596963185E-1,1.201615534E0,2.071299388E0
7.604311125E0,1.384740534E0,3.499470860E-1,9.628797126E-1,1.722529144E0
7.614373125E0,1.171852037E0,-7.795221394E-1,4.782845525E-1,1.486488505E0
7.624435125E0,9.716036122E-1,-2.122196635E0,-1.210252310E-1,2.337173345E0
7.634496125E0,-1.083948359E0,-2.605874221E0,-5.450517154E-1,2.874474886E0
7.644558125E0,-2.477973103E0,-2.043332899E0,-4.031684428E-1,3.236990087E0
7.654620125E0,-2.587568927E0,-1.781878159E0,5.587570041E-2,3.142248370E0
7.664682125E0,-1.332009467E0,-1.709352804E0,3.565386522E-1,2.196191258E0
7.674744125E0,-1.802682845E0,-2.172474504E-2,1.173153189E0,2.150912785E0
7.684806125E0,-1.403369763E-1,-2.734052789E-1,1.858932767E0,1.884164522E0
7.694868125E0,6.532493247E-1,-3.834411067E-1,1.635108807E0,1.802038449E0
7.704930125E0,9.835937664E-2,6.566183442E-1,3.555257683E-1,7.531406169E-1
7.714992125E0,-8.764311142E-1,7.160260552E-1,2.280143671E-1,1.154476228E0
7.725054125E0,-1.238690244E-1,7.673710406E-1,-7.755093415E-1,1.098005732E0
7.735116125E0,-1.648202915E-1,6.313238740E-1,-7.079115817E-1,9.627431484E-1
7.745178125E0,-1.051269148E0,-8.919342756E-2,-1.943357205E-1,1.072794790E0
7.755240125E0,-2.595119145E0,-5.511731654E-1,7.870960379E-1,2.767301105E0
7.765301125E0,-3.040115352E0,-6.453490055E-1,1.414728857E0,3.414708543E0
7.775363125E0,-2.922281678E0,-2.275093138E-1,7.928776185E-1,3.036469267E0
7.785425125E0,-2.292170809E0,9.104974312E-1,-3.150368696E-1,2.486423298E0
7.795487125E0,-2.889113639E-1,1.572395811E0,-1.396927594E0,2.123041466E0
7.805549125E0,1.146735176E0,1.235685067E0,-1.523389127E0,2.272142949E0
7.815611125E0,-3.306489354E-1,8.916805065E-1,-4.435007823E-1,1.049340644E0
7.825673125E0,-7.648391962E-1,3.885480648E-1,-1.599798203E-3,8.578759550E-1
7.835735125E0,-1.423899338E-1,4.945118916E-1,-3.758672082E-1,6.372543153E-1
7.845797125E0,-5.335119429E-1,-3.684447527E-2,3.423000973E-1,6.349502856E-1
7.855859125E0,-2.512475476E-1,-3.999518895E-1,8.371049345E-2,4.796814472E-1
7.865921125E0,2.206502375E-1,-7.994956434E-2,-8.627806431E-1,8.941302468E-1
7.875983125E0,2.030618128E-1,4.669387615E-1,-1.283829871E0,1.381117318E0
7.886045125E0,-1.218900342E-1,8.119110364E-1,-1.239802384E0,1.486999214E0
7.896107125E0,2.253877978E-1,8.644535315E-1,-1.614912378E0,1.845540993E0
7.906168125E0,9.061576277E-3,1.355904990E-1,-8.978987280E-1,9.081239019E-1
7.916230125E0,1.219787657E-2,-9.997604406E-1,5.853366923E-1,1.158571867E0
7.926292125E0,2.039636435E0,-2.325507247E0,1.437382432E0,3.410889766E0
7.936354125E0,3.367623163E0,-3.050711092E0,1.914053592E0,4.930651589E0
7.946416125E0,3.288812637E0,-2.200378001E0,1.619954578E0,4.275769491E0
7.956478125E0,2.586459126E0,-1.594284278E0,7.618629634E-1,3.132402966E0
7.966540125E0,1.601598706E0,-1.253840672E0,1.095291665E-1,2.036966245E0
7.976602125E0,5.846394119E-1,-9.653489918E-1,-3.072869700E-1,1.169669697E0
7.986664125E0,-1.834153144E-1,-9.648911548E-1,-2.922739515E-1,1.024734200E0
7.996726125E0,-6.482099019E-1,-7.894653296E-1,2.456560014E-1,1.050608612E0
8.006788125E0,-9.629200584E-1,-3.351875442E-1,8.021760070E-1,1.297324969E0
8.016850125E0,-1.070973680E0,-9.928572178E-2,8.895503658E-1,1.395758622E0
8.026912125E0,-9.049178718E-1,9.369344473E-2,5.243616351E-1,1.050052351E0
8.036974125E0,-8.443098736E-1,4.865538311E-1,2.711131704E-1,1.011482152E0
8.047035125E0,-6.703768426E-1,9.782836175E-1,-6.752130747E-2,1.187856504E0
8.057097125E0,-5.692191347E-1,1.099219240E0,-6.094623041E-1,1.379760001E0
8.067159125E0,-5.869052079E-1,9.034509516E-1,-1.100941830E0,1.540374713E0
8.077221125E0,-7.003903082E-1,5.655251563E-1,-1.111897758E0,1.430622910E0
8.087283125E0,-1.008348977E0,3.759204179E-1,-7.413241799E-1,1.306769054E0
8.097345000E0,-1.142845024E0,2.431868684E-1,-3.592611158E-1,1.222416930E0
8.107407000E0,-4.943841299E-1,7.232421041E-3,-3.020852870E-1,5.794165138E-1
8.117469000E0,1.936201675E-1,-2.198822057E-1,-1.384933493E-1,3.240638231E-1
8.127531000E0,8.836147110E-1,-5.175545990E-2,7.420204371E-2,8.882339379E-1
8.137593000E0,1.181111834E0,1.820939898E-2,-1.985866463E-1,1.197828620E0
8.147655000E0,1.323806700E0,2.834765232E-1,-5.211447895E-1,1.450660198E0
8.157717000E0,1.051212430E0,4.654395354E-1,-5.780931616E-1,1.286807382E0
8.167779000E0,2.623923406E-1,2.396153891E-1,-3.166226345E-1,4.759360963E-1
8.177840000E0,-2.257124645E-1,-1.776214546E-1,1.159362531E-1,3.097365211E-1
8.187902000E0,-1.779620549E-1,-3.307278728E-1,3.567269325E-1,5.179821650E-1
8.197964000E0,2.575230718E-2,-2.236226696E-1,3.128084958E-1,3.853821930E-1
8.208026000E0,1.575790997E-1,-4.457449436E-2,1.745174602E-1,2.393207097E-1
8.218088000E0,9.119799927E-2,2.411403430E-1,2.103038818E-2,2.586658410E-1
8.228150000E0,-1.336088777E-2,4.643174547E-1,-2.306136006E-1,5.186056737E-1
8.238212000E0,-2.127129346E-1,3.941672391E-1,-5.130984360E-1,6.810907501E-1
8.248274000E0,-4.802784531E-1,3.277188957E-1,-7.536980577E-1,9.519074688E-1
8.258336000E0,-6.932483728E-1,1.282335323E-1,-7.641066863E-1,1.039661567E0
8.268398000E0,-6.753425905E-1,-7.844449103E-2,-6.669720089E-1,9.524142027E-1
8.278460000E0,-6.190223555E-1,-8.613241017E-2,-5.339199324E-1,8.219963278E-1
8.288522000E0,-6.263864851E-1,5.096433163E-2,-4.631544435E-1,7.806852313E-1
8.298584000E0,-5.449862266E-1,1.984299409E-1,-3.308471560E-1,6.677157099E-1
8.308646000E0,-4.643328036E-1,2.780146390E-1,-4.150594868E-1,6.820348009E-1
8.318707000E0,-3.658243230E-1,2.065944082E-1,-4.952942491E-1,6.494806217E-1
8.328769000E0,-1.401874338E-1,-3.677840173E-2,-3.191717282E-1,3.505363883E-1
8.338831000E0,6.866823882E-3,-1.715836197E-1,-4.600804161E-1,4.910825603E-1
8.348893000E0,-7.338255644E-4,-1.839756238E-1,-7.734182310E-1,7.949989489E-1
8.358955000E0,-6.175127506E-2,-3.987801075E-2,-1.095606830E0,1.098070035E0
8.369017000E0,-1.456901023E-1,1.597968024E-1,-1.085535586E0,1.106864098E0
8.379079000E0,-2.824742373E-1,3.295648617E-1,-7.782914467E-1,8.911466034E-1
8.389141000E0,-4.690054598E-1,3.846736997E-1,-5.247916979E-1,8.020887125E-1
8.399203000E0,-6.511471776E-1,2.953668362E-1,-3.851353374E-1,8.121351137E-1
8.409265000E0,-7.335755959E-1,1.722040093E-1,-4.051067948E-1,8.555108947E-1
8.419327000E0,-7.033276570E-1,3.737072468E-2,-5.844765669E-1,9.152481748E-1
8.429389000E0,-5.890122521E-1,-9.426647186E-2,-6.902357411E-1,9.122757145E-1
8.439451000E0,-6.098177417E-1,-1.821752661E-1,-8.490357395E-1,1.061097165E0
8.449512000E0,-6.520034292E-1,-2.063973570E-1,-9.640070558E-1,1.181955136E0
8.459574000E0,-6.952545525E-1,-1.296947515E-1,-1.005124530E0,1.229013809E0
8.469636000E0,-7.427773592E-1,-1.681361014E-1,-9.940646678E-1,1.252258966E0
8.479698000E0,-7.914969447E-1,-3.177686888E-1,-9.504461932E-1,1.277024792E0
8.489760000E0,-8.627401511E-1,-5.761904776E-1,-9.757937269E-1,1.424250481E0
8.499822000E0,-1.023087323E0,-7.845665324E-1,-8.349671924E-1,1.536041186E0
8.509884000E0,-1.254592916E0,-7.320930344E-1,-5.372795963E-1,1.548752066E0
8.519946000E0,-1.401636356E0,-4.969209445E-1,-2.558041365E-1,1.508956811E0
8.530008000E0,-1.353646211E0,-3.703778422E-1,-5.168412387E-2,1.404353609E0
8.540070000E0,-1.137260933E0,-1.892743707E-1,1.883756536E-1,1.168192023E0
8.550132000E0,-9.224283823E-1,1.091394496E-1,3.898695356E-1,1.007364777E0
8.560194000E0,-6.724807439E-1,4.042209417E-1,6.088525857E-1,9.931396637E-1
8.570256000E0,-4.718874793E-1,7.615220708E-1,8.406973907E-1,1.228562477E0
8.580317000E0,-3.514170760E-1,1.106934056E0,9.073042667E-1,1.473769995E0
8.590379000E0,-2.285895869E-1,1.561452747E0,1.020740250E0,1.879441018E0
8.600441000E0,-7.677138336E-2,1.854966016E0,1.197864253E0,2.209450505E0
8.610503000E0,-3.700578533E-2,1.649008954E0,1.460991735E0,2.203428421E0
8.620565000E0,-2.021820992E-1,1.056253899E0,1.521899841E0,1.863525967E0
8.630627000E0,-3.887526443E-1,3.153280610E-1,1.191699899E0,1.292559110E0
8.640689000E0,-2.902616322E-1,-2.976642072E-1,8.177611756E-1,9.173816740E-1
8.650751000E0,2.543568045E-2,-6.505600441E-1,5.059525537E-1,8.245382534E-1
8.660813000E0,3.718058053E-1,-7.019839668E-1,3.235386481E-1,8.577285721E-1
8.670875000E0,7.393211431E-1,-5.388852417E-1,9.259753034E-2,9.195473664E-1
8.680937000E0,1.082170952E0,-3.092972428E-1,1.647701517E-1,1.137500750E0
8.690999000E0,1.298789680E0,-1.604423350E-1,4.750231218E-1,1.392208082E0
8.701061000E0,1.433049353E0,-6.589402735E-2,5.959447110E-1,1.553422856E0
8.711122000E0,1.524917297E0,-1.420931876E-2,5.619998699E-1,1.625244142E0
8.721184000E0,1.547647471E0,6.535432935E-3,7.307111911E-1,1.711488899E0
8.731246000E0,1.477047604E0,8.980621576E-2,9.648338521E-1,1.766533086E0
8.741308000E0,1.516199099E0,2.407228518E-1,8.956221145E-1,1.777342446E0
8.751370000E0,1.517248381E0,2.845529956E-1,7.586791545E-1,1.720060208E0
8.761432000E0,1.356237697E0,5.643849492E-2,6.185839605E-1,1.491714487E0
8.771494000E0,1.357778731E0,-1.887294102E-1,4.261684656E-1,1.435549175E0
8.781556000E0,1.458897262E0,-2.467840755E-1,2.349950655E-1,1.498167642E0
8.791618000E0,1.481709297E0,1.553254366E-2,6.707677290E-2,1.483308125E0
8.801680000E0,1.413481646E0,2.732702082E-1,1.552938616E-1,1.448006614E0
8.811742000E0,1.416160255E0,3.048995519E-1,2.854546362E-1,1.476468068E0
8.821804000E0,1.309764612E0,1.095043159E-1,2.283559906E-1,1.334024360E0
8.831865000E0,1.116566467E0,-1.690967989E-1,7.766681135E-2,1.131965784E0
8.841927000E0,9.615149724E-1,-3.024402130E-1,4.039958239E-2,1.008768185E0
8.851989000E0,9.356828508E-1,-2.436400276E-1,6.020570979E-2,9.687556905E-1
8.862051000E0,1.019488069E0,-1.280622089E-1,9.775828287E-2,1.032139784E0
8.872113000E0,1.068426341E0,-1.210543209E-1,1.475730519E-1,1.085341789E0
8.882175000E0,9.653665334E-1,-1.093762618E-1,2.116890872E-1,9.943379607E-1
8.892237000E0,8.037573865E-1,1.409471333E-2,3.240192162E-1,8.667254754E-1
8.902299000E0,7.326567060E-1,1.224670082E-1,2.908426993E-1,7.977302129E-1
8.912361000E0,7.367702222E-1,5.232030094E-2,1.937860092E-1,7.636234619E-1
8.922423000E0,7.346532378E-1,-1.340713924E-1,4.115416557E-3,7.467981352E-1
8.932485000E0,6.425663155E-1,-2.364637399E-1,-1.263817191E-1,6.962606617E-1
8.942547000E0,4.997612295E-1,-8.290299296E-2,-2.241518426E-1,5.539659207E-1
8.952608000E0,4.381470716E-1,1.724788284E-1,-2.690584588E-1,5.423230189E-1
8.962670000E0,2.479365434E-1,2.256814742E-1,-3.026131444E-1,4.516407560E-1
8.972732000E0,-8.976371381E-3,2.281297034E-1,-2.243282823E-1,3.200732964E-1
8.982794000E0,-8.889550279E-2,2.652817422E-1,-1.615948943E-1,3.230939848E-1
8.992856000E0,-1.482079133E-1,2.665020561E-1,-2.394943517E-1,3.877453752E-1
9.002918000E0,-2.158610755E-1,2.148231947E-1,-3.911190856E-1,4.957006637E-1
9.012980000E0,-3.339605060E-1,7.854447842E-2,-5.733060461E-1,6.681157663E-1
9.023042000E0,-4.456294611E-1,-1.266980535E-1,-6.872081991E-1,8.287901557E-1
9.033104000E0,-5.890771562E-1,-2.106324953E-1,-5.088691449E-1,8.064277715E-1
9.043166000E0,-6.047172886E-1,-7.529985845E-2,-3.359963603E-1,6.958783098E-1
9.053228000E0,-4.727169800E-1,1.193574589E-1,-2.316915348E-1,5.398041436E-1
9.063290000E0,-3.817296267E-1,1.541191560E-1,-1.350182028E-1,4.332437388E-1
9.073351000E0,-2.567757976E-1,2.388061345E-2,-3.320921744E-1,4.204632044E-1
9.083413000E0,-1.309904945E-1,-7.916019022E-2,-4.955119117E-1,5.186105475E-1
9.093475000E0,-1.482769105E-1,9.784730673E-3,-4.405526161E-1,4.649391258E-1
9.103537500E0,-1.928622222E-1,2.142431509E-1,-2.640893488E-1,3.909464779E-1
9.113599500E0,-1.905171964E-1,3.765168339E-1,-1.638572551E-1,4.526708831E-1
9.123661500E0,-1.909715250E-1,3.463305831E-1,-1.490642381E-1,4.226525088E-1
9.133723500E0,-2.376007310E-1,2.709003317E-1,-1.665684628E-1,3.969712205E-1
9.143785500E0,-2.382462636E-1,2.163300222E-1,-5.784014560E-2,3.269639782E-1
9.153847500E0,-2.413043573E-1,1.793978387E-1,3.235140167E-2,3.024202219E-1
9.163909500E0,-2.369844344E-1,1.096528351E-1,2.469630003E-2,2.622885313E-1
9.173971500E0,-1.560168698E-1,5.458960533E-2,3.713157356E-2,1.694108687E-1
9.184032500E0,1.445051183E-2,-2.123942614E-2,-9.400868274E-2,9.745544082E-2
9.194094500E0,2.649525440E-1,-9.686614394E-2,-2.861627340E-1,4.018358007E-1
9.204156500E0,5.034277260E-1,-7.984431446E-2,-2.626465483E-1,5.734089284E-1
9.214218500E0,5.945372862E-1,4.327465832E-2,-1.742787476E-1,6.210638957E-1
9.224280500E0,5.599735174E-1,1.586250204E-1,-3.617803887E-2,5.831304209E-1
9.234342500E0,4.634152293E-1,2.559261972E-1,3.375656068E-2,5.304633810E-1
9.244404500E0,3.984611419E-1,2.806599194E-1,2.862314388E-2,4.882218310E-1
9.254466500E0,3.447945195E-1,1.247608709E-1,-5.117994770E-2,3.702268530E-1
9.264528500E0,1.987737572E-1,-9.551543713E-2,-2.717247891E-1,3.499550919E-1
9.274590500E0,1.126445630E-1,-1.172881293E-1,-4.339649968E-1,4.634338370E-1
9.284652500E0,1.069838827E-1,1.939989209E-2,-3.994237398E-1,4.139580061E-1
9.294713500E0,1.050887818E-1,8.618561983E-2,-3.678554995E-1,3.921597655E-1
9.304775500E0,6.251257797E-2,7.360767424E-2,-4.174738021E-1,4.284977101E-1
9.314837500E0,-1.463411897E-2,-1.127460122E-2,-4.184127188E-1,4.188203401E-1
9.324899500E0,-6.887199601E-2,-8.440689683E-2,-3.465437141E-1,3.632635708E-1
9.334961500E0,-9.004127383E-3,1.603189588E-2,-3.321738893E-1,3.326824142E-1
9.345023500E0,8.168033103E-2,1.863817531E-1,-2.579734536E-1,3.285728794E-1
9.355085500E0,1.572465393E-1,4.111469686E-1,-1.934084983E-1,4.808067711E-1
9.365147500E0,9.096512477E-2,4.754066992E-1,-3.625251777E-1,6.047401823E-1
9.375209500E0,1.590178619E-2,3.386093348E-1,-6.190729339E-1,7.058048214E-1
9.385271500E0,2.665512641E-2,4.876577854E-2,-7.764334939E-1,7.784199172E-1
9.395333500E0,-1.714667668E-2,-2.196775532E-1,-8.628959794E-1,8.905850365E-1
9.405394500E0,-1.567790544E-1,-2.909726536E-1,-9.787724447E-1,1.033073209E0
9.415456500E0,-2.786353210E-1,-2.149354613E-1,-9.044742143E-1,9.705197056E-1
9.425518500E0,-3.734397367E-1,-1.440976131E-1,-7.646082312E-1,8.630452515E-1
9.435580500E0,-3.837524709E-1,-1.797159272E-1,-7.596193868E-1,8.698191687E-1
9.445642500E0,-2.463686308E-1,-1.768396819E-1,-8.148675348E-1,8.694704564E-1
9.455704500E0,-9.330109656E-2,-7.794163048E-2,-8.247025515E-1,8.336151935E-1
9.465766500E0,-4.685110778E-2,7.871346295E-2,-9.090667637E-1,9.136701901E-1
9.475828500E0,-1.757933226E-1,2.518173587E-1,-9.281086600E-1,9.775995904E-1
9.485890500E0,-3.394589353E-1,3.817085767E-1,-9.196315129E-1,1.051977151E0
9.495952500E0,-4.013420650E-1,2.276829761E-1,-9.725603628E-1,1.076470459E0
9.506014500E0,-4.283018222E-1,-1.233136851E-1,-8.864503182E-1,9.921909507E-1
9.516075500E0,-4.761612824E-1,-3.841340017E-1,-7.592434108E-1,9.750584880E-1
9.526137500E0,-4.700316462E-1,-5.237614185E-1,-8.113708998E-1,1.074047722E0
9.536199500E0,-4.562582374E-1,-5.593925965E-1,-9.962429018E-1,1.230281096E0
9.546261500E0,-5.107653970E-1,-5.002433324E-1,-1.137882345E0,1.343838128E0
9.556323500E0,-5.860152617E-1,-4.611617124E-1,-1.332664939E0,1.527114879E0
9.566385500E0,-5.837035650E-1,-4.628726077E-1,-1.384789212E0,1.572450974E0
9.576447500E0,-5.105706847E-1,-3.598277110E-1,-1.112478971E0,1.275840063E0
9.586509500E0,-1.347733324E-1,-1.855818540E-1,-7.890333666E-1,8.216922351E-1
9.596571500E0,3.457496988E-1,-1.490858728E-1,-8.330857046E-1,9.142216596E-1
9.606633500E0,7.681665543E-1,-3.270914894E-1,-1.046208529E0,1.338514469E0
9.616695500E0,8.713675717E-1,-8.309361219E-1,-1.149698837E0,1.664795393E0
9.626756500E0,5.692866701E-1,-1.304339565E0,-1.162501316E0,1.837606684E0
9.636818500E0,3.574201199E-1,-1.429099267E0,-1.295438933E0,1.961692098E0
9.646880500E0,2.986369281E-1,-1.296499034E0,-1.441646514E0,1.961743722E0
9.656942500E0,2.372443432E-1,-1.081941302E0,-1.049055977E0,1.525581955E0
9.667004500E0,2.955387443E-1,-9.117692006E-1,-4.605606186E-1,1.063382484E0
9.677066500E0,5.970627351E-1,-8.534946799E-1,-3.559961767E-1,1.100758991E0
9.687128500E0,7.807112438E-1,-8.696505368E-1,-5.014469817E-1,1.271711908E0
9.697190500E0,7.168937820E-1,-7.434126592E-1,-3.491144425E-1,1.090174284E0
9.707252500E0,6.774236146E-1,-7.733539116E-1,-6.291808695E-1,1.205341276E0
9.717314500E0,4.541725355E-1,-1.052719842E0,-9.301890993E-1,1.476395448E0
9.727375500E0,2.181140077E-1,-1.410257784E0,-1.161400870E0,1.839905627E0
9.737437500E0,-2.740826789E-1,-1.851291041E0,-1.343032930E0,2.303505434E0
9.747499500E0,-1.118400739E0,-2.108578470E0,-1.345996299E0,2.740187842E0
9.757561500E0,-1.458839082E0,-1.696551495E0,-8.031913760E-1,2.377312523E0
9.767623500E0,-5.833851110E-1,-1.114098065E0,2.245731345E-1,1.277491988E0
9.777685500E0,7.445143477E-1,-6.146177942E-1,1.171198172E0,1.517814813E0
9.787747500E0,1.383443914E0,-2.559384763E-1,1.259708645E0,1.888461659E0
9.797809500E0,1.285584036E0,-1.529959059E-1,6.974807337E-1,1.470582686E0
9.807871500E0,7.486920371E-1,-5.929217005E-1,-6.767774972E-1,1.170522828E0
9.817933500E0,-2.259965660E-1,-1.545869917E0,-1.983264160E0,2.524702948E0
9.827995500E0,-1.520341558E0,-2.320406721E0,-2.201248652E0,3.541358698E0
9.838056500E0,-2.046995010E0,-2.467100497E0,-1.034539387E0,3.368537543E0
9.848118500E0,-7.009551492E-1,-1.502015215E0,1.558965926E0,2.275469751E0
9.858180500E0,9.003639872E-1,-7.541797221E-2,2.318906033E0,2.488708173E0
9.868242500E0,1.427963445E0,7.063395578E-1,1.909867570E0,2.487084499E0
9.878304500E0,1.001897306E0,6.427089876E-1,1.183162453E0,1.678316550E0
9.888366500E0,2.838197547E-1,-2.674224079E-1,7.976327205E-1,8.878549173E-1
9.898428500E0,-1.747235745E-2,-5.044100583E-1,7.532231176E-1,9.066861943E-1
9.908490500E0,-1.702994250E-1,-1.156643575E-1,6.439734480E-1,6.760783530E-1
9.918552500E0,4.348906110E-1,3.136066407E-1,1.297830737E0,1.404223483E0
9.928614500E0,1.164792548E0,6.284166384E-1,1.609476514E0,2.083761934E0
9.938675500E0,1.364682684E0,7.243238389E-1,1.049224961E0,1.867585841E0
9.948737500E0,1.125030019E0,2.705120766E-1,9.057530004E-1,1.469441331E0
9.958799500E0,7.868587871E-1,-3.801549715E-1,1.278700401E0,1.548786386E0
9.968861500E0,7.508310217E-1,-4.538234568E-1,1.856016176E0,2.052924499E0
9.978923500E0,1.035273651E0,-2.723656440E-1,1.754535409E0,2.055327000E0
9.988985500E0,1.162355428E0,-1.102492511E-1,1.393319569E0,1.817846105E0
9.999047500E0,9.057898378E-1,4.415349483E-1,1.567878252E0,1.863773204E0
1.000910950E1,7.111091316E-1,1.198998467E0,1.975562500E0,2.417875247E0
1.001917150E1,5.888568623E-1,1.585304709E0,1.963124010E0,2.591100018E0
1.002923350E1,4.163879742E-1,1.350653606E0,1.851282562E0,2.329139591E0
1.003929550E1,8.485888660E-2,1.098431035E0,1.667418328E0,1.998508356E0
1.004935650E1,-2.855461451E-1,9.774287546E-1,1.732737574E0,2.009796774E0
1.005941850E1,-2.670411694E-1,9.837800002E-1,1.606558169E0,1.902672653E0
1.006948050E1,-3.812981021E-1,8.287574494E-1,1.168908695E0,1.482759148E0
1.007954250E1,-9.490323365E-2,6.108603734E-1,1.258527507E0,1.402158517E0
1.008960450E1,2.969014379E-1,6.641630065E-1,1.048750167E0,1.276377639E0
1.009967154E1,2.749539140E-1,7.493440747E-1,6.670562088E-1,1.040230832E0
1.010973354E1,3.627209133E-1,1.027675633E0,6.752785635E-1,1.282062715E0
1.011979554E1,1.985027388E-1,1.392324373E0,7.244559860E-1,1.582026224E0
1.012985754E1,-2.778801531E-1,1.444845818E0,6.199048465E-1,1.596583489E0
1.013991954E1,-5.851247308E-1,1.264969677E0,6.025292605E-1,1.518407305E0
1.014998154E1,-7.205854216E-1,1.130303038E0,6.214122587E-1,1.477491626E0
1.016004354E1,-8.560510826E-1,9.966824663E-1,6.163666964E-1,1.451243363E0
1.017010554E1,-8.897538489E-1,8.283159846E-1,5.688270789E-1,1.342137671E0
1.018016654E1,-8.319064674E-1,6.213087630E-1,3.051784641E-1,1.082232343E0
1.019022854E1,-7.426954982E-1,4.300708973E-1,-9.586451590E-2,8.635667809E-1
1.020029054E1,-4.562561908E-1,2.789145255E-1,-3.808005041E-1,6.564846138E-1
1.021035254E1,-2.031945446E-1,3.196836519E-1,-1.064988470E-1,3.934814668E-1
1.022041454E1,5.197297633E-3,1.897690451E-1,7.386261284E-2,2.037031859E-1
1.023047654E1,-3.052334279E-2,-8.594705343E-2,-3.423310876E-2,9.741907505E-2
1.024053854E1,-2.448960096E-1,2.291523814E-2,9.874193072E-3,2.461638953E-1
1.025060054E1,-3.242301545E-1,3.724758232E-1,3.248648697E-1,5.911011889E-1
1.026066254E1,-4.094050831E-1,3.393022299E-1,4.140582973E-1,6.739308561E-1
1.027072454E1,-4.218847954E-1,2.997516632E-2,2.593731308E-1,4.961448500E-1
1.028078654E1,-4.613049692E-1,-1.688991630E-1,1.995602077E-1,5.302390766E-1
1.029084854E1,-5.841011757E-1,-2.596543819E-1,9.902376652E-2,6.468386876E-1
1.030091054E1,-6.297322619E-1,-3.009257841E-1,-4.147547007E-2,6.991704112E-1
1.031097254E1,-4.957225576E-1,-2.935618007E-1,-8.735623240E-2,5.827096158E-1
1.032103454E1,-3.279498607E-1,-1.762666547E-1,4.389387846E-2,3.748969422E-1
1.033109554E1,-1.379130131E-1,-1.083921754E-1,1.850292921E-1,2.549601965E-1
1.034115754E1,4.759925902E-2,-1.655989945E-1,1.985164797E-1,2.628640507E-1
1.035121954E1,6.445765883E-2,-2.770200276E-1,1.385497749E-1,3.163714994E-1
1.036128154E1,7.003824145E-2,-3.389069581E-1,2.117563301E-1,4.057142158E-1
1.037134354E1,5.349559128E-2,-3.017093110E-1,4.094156080E-1,5.113818796E-1
1.038140554E1,9.757716537E-2,-2.752296102E-1,5.923720622E-1,6.604372049E-1
1.039146754E1,2.075820029E-2,-1.902099252E-1,5.816734117E-1,6.123354280E-1
1.040152954E1,-4.919759542E-2,-2.086005878E-1,4.535954154E-1,5.016805851E-1
1.041159154E1,-5.789620578E-3,-2.264550608E-1,3.380202278E-1,4.069067322E-1
1.042165354E1,3.097445548E-2,-2.874666631E-2,3.607802224E-1,3.632466884E-1
1.043171554E1,1.238136220E-1,1.494659418E-1,4.689923036E-1,5.075664110E-1
1.044177754E1,1.552973700E-1,2.827467906E-1,6.426130933E-1,7.190372788E-1
1.045183954E1,1.231604880E-1,5.551077569E-1,7.860178113E-1,9.701222228E-1
1.046190154E1,9.371624887E-2,6.471207118E-1,5.867099109E-1,8.785080936E-1
1.047196254E1,6.445298105E-2,5.346044952E-1,3.895841914E-1,6.646292164E-1
1.048202454E1,-5.519333035E-2,4.878162450E-1,4.365344095E-1,6.569423744E-1
1.049208654E1,-1.730381146E-1,4.933482957E-1,5.872946325E-1,7.862885700E-1
1.050214854E1,-1.312641442E-1,5.343764538E-1,7.938460636E-1,9.659089204E-1
1.051221054E1,-1.929668874E-2,6.609283268E-1,9.472898662E-1,1.155230153E0
1.052227254E1,4.683532029E-2,8.299958897E-1,9.517548001E-1,1.263694553E0
1.053233454E1,5.617712438E-3,8.125016052E-1,7.424855831E-1,1.100670368E0
1.054239654E1,-1.378568798E-1,8.775220585E-1,5.648737764E-1,1.052678425E0
1.055245854E1,-2.171439546E-1,9.702811182E-1,3.916684315E-1,1.068644518E0
1.056252054E1,-2.387193033E-1,8.977048928E-1,2.320920691E-1,9.574589854E-1
1.057258254E1,-2.057290202E-1,7.714594138E-1,1.196773016E-1,8.073392802E-1
1.058264454E1,-1.530745509E-1,6.440643722E-1,1.352651015E-1,6.756829000E-1
1.059270654E1,-1.004042941E-1,5.413089126E-1,1.955408317E-1,5.842367483E-1
1.060276854E1,-5.581898242E-2,4.504186231E-1,1.310147604E-1,4.723955570E-1
1.061282954E1,-1.070192492E-1,4.493900979E-1,1.898485672E-1,4.994467522E-1
1.062289154E1,-1.588542312E-1,5.979257476E-1,3.940017629E-1,7.334761452E-1
1.063295354E1,-1.636562571E-1,6.108130109E-1,5.881989044E-1,8.636283089E-1
1.064301554E1,-1.419396982E-1,3.645347196E-1,6.683136526E-1,7.743872274E-1
1.065307754E1,-1.764721844E-1,8.620725453E-2,8.190905401E-1,8.423083969E-1
1.066313954E1,-1.787499672E-1,-2.107336521E-2,1.126795294E0,1.141079871E0
1.067320154E1,-6.380949497E-2,6.606008828E-2,1.441807605E0,1.444729994E0
1.068326354E1,2.116048872E-2,3.015344793E-1,1.641539721E0,1.669138539E0
1.069332554E1,-1.152193844E-3,5.515994275E-1,1.584848042E0,1.678096115E0
1.070338754E1,-1.590521595E-1,7.325882936E-1,1.464134613E0,1.644893116E0
1.071344954E1,-3.240228707E-1,8.341380572E-1,1.515373179E0,1.759867322E0
1.072351154E1,-4.049343020E-1,8.863133472E-1,1.480057751E0,1.772031062E0
1.073357354E1,-3.911857438E-1,8.545904481E-1,1.463461014E0,1.739272624E0
1.074363454E1,-3.393645027E-1,8.308881748E-1,1.584457448E0,1.821002149E0
1.075369654E1,-2.967672443E-1,9.571126038E-1,1.416866891E0,1.735409785E0
1.076375854E1,-3.272400087E-1,1.081223849E0,1.266420079E0,1.697041794E0
1.077382054E1,-3.568582025E-1,1.174551258E0,1.321970674E0,1.804030182E0
1.078388254E1,-2.776290151E-1,1.186110619E0,1.423139492E0,1.873302507E0
1.079394454E1,-2.557385015E-1,1.122254346E0,1.350775521E0,1.774669407E0
1.080400654E1,-2.867202660E-1,9.632551038E-1,1.106498146E0,1.494793315E0
1.081406854E1,-2.857598609E-1,7.443388581E-1,9.749238074E-1,1.259434581E0
1.082413054E1,-2.532782856E-1,6.020977360E-1,1.020686164E0,1.211805190E0
1.083419254E1,-3.242851183E-1,5.353570318E-1,9.710085118E-1,1.155259936E0
1.084425354E1,-3.744942820E-1,3.729839462E-1,9.718949497E-1,1.106319477E0
1.085431554E1,-2.164813189E-1,2.134958768E-1,1.193626337E0,1.231742053E0
1.086437754E1,4.186957240E-2,-3.798351288E-2,1.308940739E0,1.310160932E0
1.087443954E1,1.646666560E-1,-2.513431495E-1,1.273942230E0,1.308899267E0
1.088450154E1,2.728059393E-1,-3.421661961E-1,1.108122211E0,1.191400697E0
1.089456354E1,3.627790931E-1,-3.887018466E-1,1.067954763E0,1.192990013E0
1.090462554E1,4.102371418E-1,-3.752158284E-1,1.014047527E0,1.156448796E0
1.091468754E1,4.724855764E-1,-4.286143559E-1,7.632087001E-1,9.947061908E-1
1.092474954E1,2.884739922E-1,-7.370795399E-1,7.873898605E-1,1.116461502E0
1.093481154E1,1.621294029E-1,-1.029442077E0,6.913242003E-1,1.250586296E0
1.094487254E1,5.291130826E-2,-1.365464019E0,6.089521345E-1,1.496032852E0
1.095493454E1,1.223360306E-1,-1.571927449E0,6.882599670E-1,1.720355717E0
1.096499654E1,3.116089395E-1,-1.657342406E0,6.042395711E-1,1.791365245E0
1.097505854E1,3.565240341E-1,-1.750706652E0,4.069217706E-1,1.832394198E0
1.098512054E1,3.840517022E-1,-1.938407537E0,-4.883039027E-2,1.976690137E0
1.099518254E1,3.227163103E-1,-2.150857347E0,-3.791369712E-1,2.207731412E0
1.100524454E1,2.181504066E-1,-2.217166527E0,-6.292027965E-1,2.315019042E0
1.101530654E1,1.111888987E-1,-2.023859332E0,-6.008598804E-1,2.114096062E0
1.102536854E1,5.769915462E-2,-1.649617065E0,-3.299478543E-1,1.683279905E0
1.103543054E1,9.440358907E-2,-1.307476012E0,-7.808781087E-2,1.313203436E0
1.104549154E1,1.176304838E-1,-1.225183468E0,1.245831156E-1,1.237106468E0
1.105555354E1,2.181363733E-1,-1.264683748E0,2.972987562E-2,1.283702585E0
1.106561554E1,9.797740728E-2,-1.494354193E0,-9.857762396E-2,1.500803643E0
1.107567754E1,-1.303230348E-1,-1.749761742E0,-3.527555037E-1,1.789716931E0
1.108573954E1,-2.673563343E-1,-1.867483735E0,-5.864067328E-1,1.975562646E0
1.109580154E1,-3.446720204E-1,-1.876674389E0,-7.962726581E-1,2.067548236E0
1.110585812E1,-4.515476473E-1,-1.822258446E0,-1.086728564E0,2.169216470E0
1.111592012E1,-5.523063558E-1,-1.705905286E0,-1.361390848E0,2.251341866E0
1.112598212E1,-6.476799980E-1,-1.461670597E0,-1.563902146E0,2.236461543E0
1.113604313E1,-6.411562595E-1,-1.053822042E0,-1.579874985E0,2.004401959E0
1.114610512E1,-7.099942868E-1,-6.187242937E-1,-1.233830623E0,1.552175778E0
1.115616712E1,-3.793108528E-1,-3.129804039E-1,-1.911245174E0,1.973497295E0
1.116622912E1,-8.532878347E-2,-1.729910445E-1,-2.085538540E0,2.094439759E0
1.117629112E1,-5.216556899E-2,-1.793428749E-1,-1.562451013E0,1.573575000E0
1.118635312E1,3.153491110E-2,-3.042353082E-1,-1.291245895E0,1.326977594E0
1.119641512E1,2.023262331E-1,-3.633605987E-1,-1.165790375E0,1.237753621E0
1.120647713E1,3.210326777E-1,-3.597528666E-1,-1.054598114E0,1.159595312E0
1.121653912E1,1.901032866E-1,-1.790522683E-1,-9.225937124E-1,9.588420790E-1
1.122660113E1,2.989103951E-2,2.418174505E-1,-8.873092742E-1,9.201559117E-1
1.123666212E1,-2.544182003E-2,5.415287679E-1,-8.592307985E-1,1.015961740E0
1.124672412E1,4.019376040E-3,5.277533126E-1,-7.043310392E-1,8.801260859E-1
1.125678612E1,-3.145509660E-3,2.771053970E-1,-5.170359510E-1,5.866203797E-1
1.126684813E1,-5.881326847E-2,-5.627828121E-2,-4.026587118E-1,4.108044348E-1
1.127691012E1,-1.901400509E-1,-3.579361367E-1,-4.516833758E-1,6.068685104E-1
1.128697213E1,-3.290564463E-1,-4.290704387E-1,-5.138275838E-1,7.459211568E-1
1.129703412E1,-3.335952743E-1,-2.743513584E-1,-4.795735712E-1,6.454031958E-1
1.130709613E1,-2.622411901E-1,-1.123647738E-1,-4.092454541E-1,4.988768644E-1
1.131715812E1,-2.534984332E-1,-3.212343335E-2,-4.490404344E-1,5.166533483E-1
1.132722013E1,-3.506342069E-1,8.406424999E-2,-4.667754780E-1,5.898224241E-1
1.133728112E1,-3.986144120E-1,1.743569541E-1,-4.211116473E-1,6.054988162E-1
1.134734313E1,-3.026460350E-1,2.257376075E-1,-3.916874349E-1,5.440322937E-1
1.135740512E1,-3.244000161E-1,2.064710319E-1,-3.759432220E-1,5.377722228E-1
1.136746713E1,-5.013812006E-1,1.823278785E-2,-2.951048809E-1,5.820673789E-1
1.137752912E1,-5.689559370E-1,-1.969032329E-1,-1.475230582E-1,6.198748213E-1
1.138759113E1,-4.620806023E-1,-2.543603128E-1,-1.194475061E-1,5.408191551E-1
1.139765312E1,-3.053255215E-1,-1.748305786E-1,-1.873787034E-1,3.986228591E-1
1.140771512E1,-2.569488021E-1,-5.865049660E-2,-7.116485372E-2,2.729963444E-1
1.141777712E1,-1.429091665E-1,2.828298211E-2,-4.967443585E-2,1.539172067E-1
1.142783813E1,2.794910610E-2,8.377656698E-2,-2.363152206E-2,9.142272443E-2
1.143790012E1,1.219463868E-1,8.141487658E-2,8.092414901E-2,1.674754348E-1
1.144796213E1,9.687900782E-2,3.929036558E-2,1.447606874E-1,1.785635225E-1
1.145802412E1,7.861932278E-2,-2.747431219E-2,9.490849614E-2,1.262674082E-1
1.146808613E1,7.302178323E-2,-8.255566835E-2,4.293610454E-2,1.182840998E-1
1.147814812E1,1.846177943E-2,-6.406618774E-2,-1.025265411E-2,6.745687976E-2
1.148821012E1,-2.908288121E-2,3.856121778E-2,-5.854583144E-2,7.589727186E-2
1.149827212E1,-1.817497350E-2,9.642175555E-2,1.759441808E-2,9.968474383E-2
1.150833412E1,1.862776726E-2,4.719170809E-2,5.890601993E-2,7.774297530E-2
1.151839613E1,7.539662987E-2,8.836312294E-3,1.741277432E-1,1.899557927E-1
1.152845713E1,9.651384920E-2,-3.319347382E-2,1.621783733E-1,1.916208615E-1
1.153851912E1,8.755832680E-2,-1.041798413E-2,7.612475440E-2,1.164902280E-1
1.154858112E1,1.172504148E-1,7.437658310E-4,-6.185243189E-2,1.325667239E-1
1.155864312E1,1.857912574E-1,8.693698704E-2,-1.999363299E-1,2.864453998E-1
1.156870512E1,2.236486897E-1,1.196521586E-1,-1.203310204E-1,2.807399685E-1
1.157876713E1,2.028884429E-1,9.877350569E-2,1.187043250E-2,2.259664419E-1
1.158882912E1,1.338428394E-1,8.297257483E-2,-1.258613169E-4,1.574749811E-1
1.159889113E1,3.306724705E-2,3.426702261E-2,-1.166007891E-2,4.902682027E-2
1.160895312E1,-1.130119143E-1,2.391511202E-4,-3.380421549E-2,1.179596328E-1
1.161901513E1,-1.361626491E-1,-1.510978997E-2,-6.576714277E-2,1.519667392E-1
1.162907612E1,-9.264591604E-2,-2.910627007E-2,2.531318128E-2,1.003553579E-1
1.163913812E1,-7.243026428E-2,9.698776603E-3,-1.499942377E-2,7.460021558E-2
1.164920012E1,-1.713909540E-1,3.449038625E-2,-7.648508906E-2,1.908256133E-1
1.165926213E1,-1.984338147E-1,3.170594215E-2,3.031342775E-3,2.009737163E-1
1.166932412E1,-1.501222917E-1,3.484121919E-2,9.619137526E-2,1.816683619E-1
1.167938613E1,-1.024180021E-1,1.183944225E-2,1.076552801E-1,1.490613259E-1
1.168944812E1,-9.054994505E-2,-4.485223711E-2,3.074319810E-3,1.010963262E-1
1.169951013E1,-9.833818048E-2,-4.120883703E-2,-7.950809956E-2,1.330041499E-1
1.170957212E1,-4.101938725E-2,3.319990575E-2,3.458628058E-2,6.309544101E-2
1.171963412E1,5.840812951E-2,1.916834235E-2,1.517375851E-1,1.637169193E-1
1.172969512E1,2.969011456E-2,-7.238385201E-2,1.459020638E-1,1.655546350E-1
1.173975713E1,-2.160074752E-2,-8.207736611E-2,5.637285993E-2,1.018881036E-1
1.174981912E1,-7.661102347E-2,-3.696843624E-2,3.327635810E-2,9.134128422E-2
1.175988113E1,-2.005536131E-1,-3.529437840E-2,-6.664904907E-2,2.142651176E-1
1.176994312E1,-2.248874223E-1,-1.191481286E-1,3.234855115E-2,2.565483542E-1
1.178000513E1,-1.467723488E-1,-1.983550966E-1,3.437880675E-1,4.231750254E-1
1.179006712E1,-6.507797532E-2,-1.589910561E-1,4.191171621E-1,4.529597050E-1
1.180012912E1,-4.345504493E-2,-1.249433041E-2,3.920803678E-1,3.946789379E-1
1.181019112E1,1.303949921E-1,4.708353460E-2,3.453890352E-1,3.721737482E-1
1.182025213E1,3.105290318E-1,1.400700510E-2,3.348289637E-1,4.568751588E-1
1.183031412E1,3.535961140E-1,-2.564471841E-2,3.572226302E-1,5.032850792E-1
1.184037613E1,2.773870135E-1,-4.335476518E-2,2.117088215E-1,3.516302263E-1
1.185043812E1,1.675684098E-1,-9.672814965E-2,8.045754120E-2,2.095445605E-1
1.186050012E1,1.037588418E-1,-1.289661884E-1,4.265327471E-1,4.575241626E-1
1.187056212E1,1.233446753E-1,-9.451556325E-2,7.160851121E-1,7.327516553E-1
1.188062412E1,2.666877418E-1,-9.380980432E-2,4.692775016E-1,5.478539992E-1
1.189068612E1,3.515454589E-1,-1.186528695E-1,2.687665366E-1,4.581464442E-1
1.190074812E1,2.967784271E-1,-9.189776480E-2,2.141599743E-1,3.773421903E-1
1.191081013E1,4.947533816E-2,-9.380337238E-2,1.817033958E-1,2.103877511E-1
1.192087112E1,-4.258059382E-2,-9.045408726E-2,4.320548576E-1,4.434709109E-1
1.193093312E1,4.690113802E-2,-6.642144620E-2,6.561393110E-1,6.611583175E-1
1.194099512E1,1.876087913E-1,-2.792630196E-3,6.009639609E-1,6.295732997E-1
1.195105712E1,3.205102289E-1,-2.416654229E-2,4.329160063E-1,5.391911508E-1
1.196111912E1,4.380956161E-1,-5.450423598E-2,3.160314810E-1,5.429312826E-1
1.197118113E1,4.410473271E-1,-4.757002294E-2,2.442403905E-1,5.063980847E-1
1.198124312E1,3.300908918E-1,4.470020950E-2,1.587137519E-1,3.689826020E-1
1.199130513E1,1.922924476E-1,6.414570987E-2,2.428499226E-1,3.163339097E-1
1.200136712E1,1.337565199E-1,9.807008564E-2,4.105903137E-1,4.428238408E-1
1.201142913E1,3.372940768E-2,5.840842187E-2,4.068362550E-1,4.123893247E-1
1.202149012E1,-1.048712745E-1,-3.134692311E-2,3.072208965E-1,3.261369238E-1
1.203155213E1,-1.634954221E-1,-7.906195700E-2,1.836234753E-1,2.582617408E-1
1.204161412E1,-2.768022189E-1,-5.888087690E-2,-5.225188851E-2,2.877788837E-1
1.205167613E1,-5.267838442E-1,-3.892199099E-2,-2.571558666E-1,5.874906635E-1
1.206173812E1,-7.438064691E-1,-2.197442114E-2,-2.829303932E-1,7.961033514E-1
1.207180013E1,-8.839551651E-1,-6.924857497E-3,-2.195647019E-1,9.108421081E-1
1.208186212E1,-8.566165084E-1,9.226496994E-2,-2.037561697E-1,8.853367968E-1
1.209192413E1,-7.560537547E-1,1.996332979E-1,2.420454919E-2,7.823404590E-1
1.210198637E1,-6.826217893E-1,2.607980973E-1,-4.295898177E-2,7.320065770E-1
1.211204837E1,-5.310815477E-1,2.665698838E-1,-4.355988550E-1,7.367859091E-1
1.212211037E1,-3.577098495E-1,2.614447993E-1,-7.294477540E-1,8.534657259E-1
1.213217138E1,-3.002901552E-1,1.134774989E-1,-8.684414057E-1,9.258735309E-1
1.214223337E1,-2.750851840E-1,-8.660311103E-2,-7.401709628E-1,7.943708274E-1
1.215229537E1,-1.869995480E-1,-1.777448308E-1,-5.371332698E-1,5.958810329E-1
1.216235737E1,-2.228493388E-1,-1.035565281E-1,-2.934789164E-1,3.827736364E-1
1.217241937E1,-2.676887485E-1,4.432306409E-2,-1.682115304E-1,3.192442937E-1
1.218248137E1,-1.729997423E-1,1.533578485E-1,-1.950855529E-1,3.024994437E-1
1.219254337E1,-1.079612722E-1,1.514721215E-1,-2.837932961E-1,3.393200182E-1
1.220260538E1,-1.263857756E-1,9.756137788E-2,-3.722677354E-1,4.050615429E-1
1.221266737E1,-1.279919692E-1,2.207206964E-2,-3.973173534E-1,4.180074159E-1
1.222272938E1,-1.153635183E-1,-2.180426717E-3,-3.066665804E-1,3.276551345E-1
1.223279037E1,-1.686786499E-1,-1.806204915E-3,-7.536615126E-2,1.847587780E-1
1.224285237E1,-2.092843832E-1,-5.316463888E-2,1.354726776E-3,2.159357940E-1
1.225291437E1,-1.735102773E-1,-6.607879937E-2,9.087157845E-2,2.067120408E-1
1.226297638E1,-6.701022428E-2,-5.348448157E-2,6.842397138E-2,1.096941192E-1
1.227303837E1,1.358741255E-1,2.410923958E-2,1.416357891E-1,1.977466313E-1
1.228310038E1,3.919517656E-1,8.633355439E-2,2.228044979E-1,4.590441302E-1
1.229316237E1,5.471894940E-1,9.015763342E-2,1.592868521E-1,5.769896381E-1
1.230322438E1,5.920882164E-1,1.975949585E-2,8.201472782E-2,5.980679805E-1
1.231328637E1,5.278723034E-1,-5.522285879E-2,8.378124475E-2,5.373248829E-1
1.232334838E1,4.122067764E-1,-1.110818946E-1,3.253156900E-2,4.281494095E-1
1.233341037E1,3.057678999E-1,-7.499346435E-2,1.198064520E-1,3.368554798E-1
1.234347138E1,1.516434449E-1,2.114119291E-2,2.498304749E-1,2.930152736E-1
1.235353337E1,1.201725608E-1,1.376452106E-1,1.449922371E-1,2.332603635E-1
1.236359538E1,5.239046752E-2,1.210221612E-1,4.736127734E-2,1.401221438E-1
1.237365737E1,1.594303647E-2,4.654617548E-2,8.545464478E-2,9.860640536E-2
1.238371938E1,9.936813097E-2,1.835791826E-2,1.208790506E-1,1.575524786E-1
1.239378137E1,1.144153557E-1,-1.905666053E-2,-2.695551798E-2,1.190824500E-1
1.240384337E1,4.191594813E-3,1.248906791E-2,-1.694757716E-1,1.699870096E-1
1.241390537E1,-1.447325842E-1,1.120443463E-2,-1.910567482E-1,2.399494557E-1
1.242396737E1,-2.555624821E-1,-5.052052796E-2,-8.568692543E-2,2.742385005E-1
1.243402937E1,-2.231043505E-1,-7.716979802E-2,4.895654395E-2,2.410963959E-1
1.244409038E1,-1.104354667E-1,7.091912448E-2,1.384263255E-1,1.907547172E-1
1.245415237E1,-5.077632537E-2,2.497702485E-1,1.122939494E-1,2.785199155E-1
1.246421437E1,-1.454513166E-3,2.252534580E-1,-3.750389501E-2,2.283588801E-1
1.247427637E1,5.006358633E-2,6.301368892E-2,-2.045029322E-1,2.197692812E-1
1.248433837E1,1.257474789E-2,-9.215738118E-2,-1.927488593E-1,2.140168917E-1
1.249440037E1,-1.383930512E-1,-1.540793949E-1,-1.050932495E-1,2.322448873E-1
1.250446237E1,-2.393584040E-1,-9.037573457E-2,2.578739047E-2,2.571482227E-1
1.251452438E1,-2.295476532E-1,-9.159078598E-3,1.452600396E-1,2.718023048E-1
1.252458637E1,-2.028039506E-1,1.388479829E-1,1.864396405E-1,3.084930215E-1
1.253464838E1,-1.990971082E-1,2.527570063E-1,9.616798639E-2,3.358184693E-1
1.254471037E1,-1.370593196E-1,2.006162149E-1,-2.233987212E-2,2.439901487E-1
1.255477137E1,-7.458706459E-2,1.237405318E-1,-1.047389082E-1,1.784522017E-1
1.256483337E1,-3.910999725E-2,-1.818016291E-2,-2.323805561E-1,2.363489646E-1
1.257489538E1,-8.298545698E-2,-1.397519624E-1,-3.436442991E-1,3.801428697E-1
1.258495737E1,-1.484429531E-1,-1.262121499E-1,-3.128617785E-1,3.685747001E-1
1.259501938E1,-2.033950858E-1,1.768724263E-2,-1.945995031E-1,2.820485173E-1
1.260508137E1,-1.388655063E-1,1.168951964E-1,-1.055475781E-1,2.099723959E-1
1.261514338E1,-9.107418448E-2,7.101384938E-2,-6.259444356E-2,1.313603374E-1
1.262520537E1,-1.111704800E-1,-1.541326046E-3,-1.624941230E-1,1.968897948E-1
1.263526738E1,-9.333267152E-2,4.083929300E-2,-2.450790274E-1,2.654101827E-1
1.264532937E1,-1.092713043E-1,2.231999159E-2,-1.698791564E-1,2.032174395E-1
1.265539137E1,-1.637395799E-1,-5.158939898E-2,-7.769078493E-2,1.884355969E-1
1.266545237E1,-1.320959289E-1,-6.205883861E-2,-1.230363809E-2,1.464650586E-1
1.267551438E1,-1.539244437E-1,2.701530576E-2,3.462077916E-2,1.600661097E-1
1.268557637E1,-1.751650210E-1,1.073741752E-1,8.265382849E-2,2.214580174E-1
1.269563838E1,-9.610335639E-2,1.080623925E-1,4.864466809E-2,1.525766676E-1
1.270570037E1,2.714659402E-2,-2.701822937E-2,-1.104364351E-1,1.168893857E-1
1.271576237E1,5.263137281E-2,-9.238308370E-2,-1.689821935E-1,1.996488850E-1
1.272582437E1,7.576997459E-2,-8.792984426E-2,1.025016904E-3,1.160766868E-1
1.273588637E1,1.289085568E-1,-2.178672552E-2,1.695845298E-1,2.141284432E-1
1.274594837E1,1.857160476E-1,5.300851822E-2,2.520313668E-1,3.175219098E-1
1.275601037E1,2.391265619E-1,5.411130309E-2,2.252598900E-1,3.329437847E-1
1.276607238E1,2.190829096E-1,-3.168840051E-2,1.109987911E-1,2.476332119E-1
1.277613337E1,1.148495480E-1,-1.282931739E-1,2.632416487E-2,1.741910411E-1
1.278619537E1,-2.813036978E-2,-1.799328589E-1,7.545247078E-2,1.971299743E-1
1.279625737E1,-1.123039262E-1,-1.218033493E-1,2.903574535E-1,3.342987863E-1
1.280631937E1,-3.232925534E-2,1.366494298E-3,4.264140487E-1,4.276400226E-1
1.281638137E1,7.459906965E-2,1.568077058E-1,3.565480077E-1,3.965856271E-1
1.282644338E1,6.213370124E-2,2.409544015E-1,1.654059633E-1,2.987955038E-1
1.283650537E1,7.366409987E-2,1.767320931E-1,-1.060217142E-2,1.917629745E-1
1.284656738E1,1.324248348E-1,9.413666368E-2,-1.280979500E-1,2.068988475E-1
1.285662937E1,8.609794814E-2,2.897938550E-2,-7.908490732E-2,1.204453570E-1
1.286669138E1,2.580960989E-3,-8.648090422E-2,-9.195565224E-2,1.262594556E-1
1.287675337E1,5.906683663E-2,-1.314997870E-1,-1.497285549E-1,2.078454361E-1
1.288681438E1,2.117262170E-1,-6.189511657E-2,-6.920355141E-2,2.311885117E-1
1.289687637E1,2.524912503E-1,9.328238547E-2,-5.413001418E-2,2.745605459E-1
1.290693838E1,3.830572370E-1,3.704252046E-1,-1.420335460E-1,5.514718553E-1
1.291700037E1,4.521336114E-1,3.669092739E-1,-2.357801273E-1,6.282033797E-1
1.292706238E1,4.303524408E-1,2.584475166E-1,-3.883043090E-1,6.346483897E-1
1.293712437E1,2.347981788E-1,1.913325906E-1,-5.647662608E-1,6.408582326E-1
1.294718638E1,2.743842490E-3,1.515639228E-1,-8.031046911E-1,8.172859329E-1
1.295724837E1,-2.715788828E-1,-9.226438522E-2,-9.642585591E-1,1.006013109E0
1.296731037E1,-5.168731061E-1,-3.427912635E-1,-9.268842530E-1,1.115247989E0
1.297737237E1,-6.057700798E-1,-3.010684562E-1,-5.436437789E-1,8.678410933E-1
1.298743437E1,-5.791380590E-1,-5.006619930E-2,-8.900522031E-2,5.880726528E-1
1.299749637E1,-5.553217649E-1,8.117981851E-2,2.915632955E-1,6.324409702E-1
1.300755738E1,-4.763854865E-1,-2.196798921E-3,4.966600125E-1,6.881999169E-1
1.301761937E1,-3.449883547E-1,-5.291613221E-2,3.581798925E-1,5.001099053E-1
1.302768137E1,-1.609700462E-1,-7.602257431E-2,2.715446949E-3,1.780397743E-1
1.303774337E1,-1.200950852E-1,-7.787672639E-2,-1.506991196E-1,2.078408974E-1
1.304780537E1,-1.639067737E-1,-3.736136913E-2,1.404837415E-2,1.686969448E-1
1.305786737E1,-2.464154086E-1,-6.221495926E-2,3.098012727E-1,4.007094750E-1
1.306792937E1,-2.411116916E-1,-8.114356577E-2,3.537448525E-1,4.357230161E-1
1.307799138E1,-1.197252305E-1,2.441972673E-2,3.424807032E-1,3.636254748E-1
1.308805337E1,-3.029095251E-2,1.128348899E-1,3.553868238E-1,3.740976459E-1
1.309811538E1,-2.434374947E-2,1.325341594E-1,2.871281824E-1,3.171758419E-1
1.310817692E1,6.019726787E-3,1.728898877E-1,3.041995671E-1,3.499493206E-1
1.311823792E1,7.955781916E-2,2.235513335E-1,2.836050888E-1,3.697789769E-1
1.312829992E1,1.382164836E-1,2.068826759E-1,1.654785419E-1,2.988099492E-1
1.313836192E1,1.689485720E-1,1.186961389E-1,1.356039476E-1,2.470239340E-1
1.314842392E1,7.818984479E-2,8.862040043E-3,1.153258038E-1,1.396145716E-1
1.315848592E1,1.676075131E-2,-1.076121569E-1,7.809892058E-2,1.340176872E-1
1.316854792E1,8.172801325E-2,-1.831423956E-1,9.736776195E-2,2.229374044E-1
1.317860992E1,1.448960869E-1,-1.938305211E-1,7.393329106E-2,2.530440247E-1
1.318867192E1,1.781722989E-1,-8.570965648E-2,2.514236949E-2,1.993079327E-1
1.319873392E1,2.120995800E-1,3.912196577E-2,5.742952488E-2,2.231925410E-1
1.320879592E1,2.383582560E-1,8.444490373E-2,1.966762148E-2,2.536383554E-1
1.321885792E1,1.746864447E-1,-7.390880585E-4,-4.110007882E-2,1.794578410E-1
1.322891892E1,1.274628693E-1,-2.619961917E-2,-1.119718409E-1,1.716708951E-1
1.323898092E1,1.042201871E-1,4.598835111E-2,-1.291451132E-1,1.722069572E-1
1.324904292E1,1.082530482E-1,1.487479037E-1,-4.175043538E-2,1.886471844E-1
1.325910492E1,1.098694745E-1,1.984024590E-1,5.075967908E-2,2.324034901E-1
1.326916692E1,1.547331136E-1,9.664161086E-2,5.108712316E-2,1.894513963E-1
1.327922892E1,2.373642294E-1,-1.845790565E-2,-1.272829212E-2,2.384208067E-1
1.328929092E1,4.304656209E-1,-1.130395424E-1,-8.900054254E-2,4.538718823E-1
1.329935292E1,5.494491139E-1,-1.738394755E-1,-1.331090138E-1,5.914663994E-1
1.330941492E1,6.036706370E-1,-1.976393974E-1,-1.964874959E-1,6.648961614E-1
1.331947692E1,6.063832334E-1,-1.378919631E-1,-1.500408693E-1,6.397085913E-1
1.332953892E1,5.300658864E-1,-4.714083731E-2,-2.196572341E-2,5.326111109E-1
1.333960092E1,4.169561774E-1,3.209829032E-2,1.117590022E-1,4.328658322E-1
1.334966192E1,2.794670874E-1,7.782000840E-2,1.474609315E-1,3.254266937E-1
1.335972392E1,6.218221486E-2,7.075247884E-2,1.918062150E-1,2.136870732E-1
1.336978592E1,-1.597172803E-1,6.912461400E-2,5.800964177E-2,1.834473778E-1
1.337984792E1,-2.814060241E-1,1.089143318E-1,-4.334073186E-2,3.048443883E-1
1.338990992E1,-3.124521080E-1,1.082758158E-1,-7.575893797E-2,3.392482701E-1
1.339997192E1,-2.974496144E-1,1.074712390E-1,-1.103480691E-1,3.349672173E-1
1.341003392E1,-3.298803189E-1,7.481804788E-2,-1.305847708E-1,3.625895027E-1
1.342009592E1,-3.677682298E-1,1.388070524E-2,-4.521191396E-2,3.707967934E-1
1.343015792E1,-3.070905036E-1,-3.776131868E-3,1.022093296E-1,3.236751205E-1
1.344021992E1,-2.900590627E-1,-7.191256642E-2,1.066620574E-1,3.173050135E-1
1.345028192E1,-3.379132238E-1,-1.668549764E-1,1.396190844E-2,3.771218170E-1
1.346034392E1,-3.559606549E-1,-1.474960148E-1,-1.476059425E-1,4.126143193E-1
1.347040492E1,-3.369326092E-1,-2.699542522E-2,-1.975394831E-1,3.915024693E-1
1.348046692E1,-3.889719514E-1,9.035176098E-2,-1.247831634E-1,4.183700008E-1
1.349052892E1,-4.056944766E-1,1.392982185E-1,2.095298566E-2,4.294543394E-1
1.350059092E1,-3.474862122E-1,1.514458090E-1,9.559715196E-2,3.909236705E-1
1.351065292E1,-3.651393217E-1,5.809267223E-2,-3.141065776E-2,3.710634881E-1
1.352071492E1,-4.320832166E-1,-2.743338168E-2,-9.120962061E-2,4.424564288E-1
1.353077692E1,-4.117881158E-1,-5.574150681E-3,-8.247446515E-2,4.200030486E-1
1.354083892E1,-3.479666340E-1,-3.467983603E-3,-8.149447180E-2,3.573991526E-1
1.355090092E1,-2.745457052E-1,-5.681330144E-2,2.392549083E-2,2.813814575E-1
1.356096292E1,-2.361552992E-1,-4.620703697E-2,1.238545525E-1,2.706369631E-1
1.357102492E1,-2.459125115E-1,9.665447474E-3,5.599754177E-2,2.523927670E-1
1.358108692E1,-2.103772278E-1,1.645348012E-2,-1.127642848E-2,2.113207345E-1
1.359114792E1,-1.373098363E-1,-5.912645996E-2,-6.358678915E-2,1.624598694E-1
1.360120992E1,-1.438955918E-1,-7.502679348E-2,-5.631453395E-2,1.717739439E-1
1.361127192E1,-5.452440888E-2,5.154086709E-2,-1.011100531E-2,7.570736141E-2
1.362133392E1,1.355331963E-1,1.425831842E-1,1.695224762E-1,2.596865065E-1
1.363139592E1,2.418385005E-1,7.914323330E-2,2.427617759E-1,3.516856430E-1
1.364145792E1,3.499321390E-1,1.904028833E-2,1.912292410E-1,3.992288280E-1
1.365151992E1,4.460554308E-1,1.964313626E-2,7.075832605E-2,4.520597757E-1
1.366158192E1,4.106464835E-1,5.383122146E-2,-1.023748789E-1,4.266250703E-1
1.367164392E1,2.432514802E-1,7.634534061E-2,-1.723607147E-1,3.077468271E-1
1.368170592E1,9.948595237E-2,6.874688387E-2,-1.677365904E-1,2.067828632E-1
1.369176792E1,2.243638773E-2,9.807768703E-2,-2.972739056E-2,1.049111145E-1
1.370182992E1,7.778295167E-3,1.439105022E-1,-4.830399469E-2,1.520000343E-1
1.371189092E1,7.403835822E-2,1.283153933E-1,-1.581789509E-1,2.167189405E-1
1.372195292E1,9.600601852E-2,1.772641897E-2,-2.009161770E-1,2.233801507E-1
1.373201492E1,8.478378642E-2,-1.043043870E-1,-1.374868242E-1,1.922766819E-1
1.374207692E1,1.143616344E-1,-1.711912715E-1,-1.705944170E-1,2.673714457E-1
1.375213892E1,1.288290712E-1,-1.196544975E-1,-2.290143871E-1,2.887242939E-1
1.376220092E1,1.443265316E-1,-7.343635082E-2,-2.485370708E-1,2.966373558E-1
1.377226292E1,1.709004091E-1,-2.825374603E-2,-2.094286267E-1,2.717822174E-1
1.378232492E1,1.907089850E-1,5.020887136E-2,-9.006407797E-2,2.168003364E-1
1.379238692E1,2.249339442E-1,1.093692452E-1,-5.575327434E-2,2.562524900E-1
1.380244892E1,2.650920001E-1,1.416341811E-1,-1.182108200E-1,3.229671930E-1
1.381251092E1,2.135487941E-1,8.415897489E-2,-1.714532268E-1,2.864996152E-1
1.382257292E1,4.804945808E-2,-1.034781754E-2,-1.951413207E-1,2.012360872E-1
1.383263392E1,-5.444547147E-2,-1.263770413E-1,-1.500968564E-1,2.036284170E-1
1.384269592E1,-3.531601310E-2,-1.622169650E-1,-7.377958238E-2,1.816727588E-1
1.385275792E1,1.558345098E-2,-1.464902937E-2,-1.201610126E-2,2.453211559E-2
1.386281992E1,3.200268835E-2,1.436234039E-1,-4.869210362E-2,1.549928230E-1
1.387288192E1,-6.529055815E-2,2.554706991E-1,-8.058062509E-2,2.757197349E-1
1.388294392E1,-1.636366689E-1,3.088206947E-1,-6.316454709E-2,3.551576282E-1
1.389300592E1,-2.370235742E-1,1.580765516E-1,4.392070256E-2,2.882661947E-1
1.390306792E1,-2.648776265E-1,-9.666616917E-2,1.861670141E-1,3.378796567E-1
1.391312992E1,-2.644250886E-1,-2.601057869E-1,1.863465967E-1,4.150911972E-1
1.392319192E1,-2.476094100E-1,-2.800173104E-1,6.974792719E-2,3.802431950E-1
1.393325392E1,-1.377168390E-1,-2.060038394E-1,1.008761644E-2,2.480025596E-1
1.394331492E1,-7.870958917E-2,-4.009552717E-2,-4.729301110E-2,1.001972037E-1
1.395337692E1,-6.984024011E-2,2.219439340E-1,-7.143791869E-2,2.433929851E-1
1.396343892E1,-8.499830615E-2,4.177753723E-1,-6.157593168E-2,4.307581329E-1
1.397350092E1,-1.849649727E-2,4.125345129E-1,-1.326990509E-1,4.337463347E-1
1.398356292E1,-7.261949480E-3,2.387733901E-1,-2.050548363E-1,3.148220983E-1
1.399362492E1,-1.887159616E-2,5.271849632E-2,-2.244558978E-1,2.313348808E-1
1.400368692E1,-4.746155709E-2,-6.448835671E-2,-2.949996310E-1,3.056732404E-1
1.401374892E1,-1.159385920E-2,-1.992614150E-1,-3.105011845E-1,3.691212736E-1
1.402381092E1,-2.914164573E-2,-3.030471539E-1,-3.056339622E-1,4.313918542E-1
1.403387292E1,-1.313018587E-1,-3.039218974E-1,-3.377340066E-1,4.729407543E-1
1.404393492E1,-1.714657252E-1,-2.699203384E-1,-3.953520311E-1,5.084886553E-1
1.405399692E1,-1.334751957E-1,-2.281671256E-1,-5.708380826E-1,6.290723182E-1
1.406405792E1,-1.613650256E-1,-1.566743892E-1,-5.533243561E-1,5.972883548E-1
1.407411992E1,-5.687349122E-2,-3.189363778E-2,-2.816031484E-1,2.890538554E-1
1.408418192E1,1.081024459E-1,1.145715129E-1,2.928402543E-2,1.602196134E-1
1.409424392E1,1.873560454E-1,1.986112046E-1,1.921170676E-1,3.338527610E-1
1.410431017E1,2.188620128E-2,1.281130797E-1,1.952921788E-1,2.345868754E-1
1.411437217E1,-1.535232516E-1,-2.228198469E-2,1.376702806E-1,2.074101776E-1
1.412443417E1,-2.421671140E-1,-1.486677969E-1,9.416063726E-2,2.993547236E-1
1.413449617E1,-3.324214458E-1,-1.962612087E-1,9.151703797E-2,3.967339762E-1
1.414455817E1,-3.731611168E-1,-7.732591867E-2,9.446761608E-2,3.926227799E-1
1.415462017E1,-4.346582573E-1,8.031969309E-2,7.074538909E-2,4.476426742E-1
1.416468217E1,-3.885371744E-1,1.327306259E-1,-5.117497757E-2,4.137601156E-1
1.417474317E1,-7.691157036E-2,1.537110204E-1,-2.584797493E-1,3.104098069E-1
1.418480517E1,2.379405273E-1,1.706223375E-1,-5.763381198E-2,2.984113484E-1
1.419486717E1,2.012304649E-1,7.788023472E-2,1.615351796E-1,2.695415463E-1
1.420492917E1,4.468727253E-2,-5.374526739E-2,1.290025873E-1,1.467214151E-1
1.421499117E1,-9.743719764E-2,-9.185624957E-2,-5.478651032E-2,1.446828939E-1
1.422505317E1,-2.228093219E-1,-4.441837370E-2,-2.719972694E-1,3.544001981E-1
1.423511517E1,-3.048795982E-1,-2.782982290E-2,-4.464619584E-1,5.413449444E-1
1.424517717E1,-2.980377712E-1,3.677898645E-3,-5.229622503E-1,6.019381656E-1
1.425523917E1,-2.147143634E-1,6.089465797E-2,-5.210081108E-1,5.667979082E-1
1.426530117E1,-7.926127397E-2,3.249590099E-2,-4.157974054E-1,4.245301114E-1
1.427536317E1,1.486769331E-1,-2.947990716E-2,-2.098064299E-1,2.588293519E-1
1.428542417E1,4.025726847E-1,-2.321344614E-4,-9.245982841E-2,4.130540403E-1
1.429548617E1,4.890480340E-1,8.842276454E-2,-1.394258340E-1,5.161648264E-1
1.430554817E1,3.162540407E-1,1.813180643E-1,-2.662250443E-1,4.514073913E-1
1.431561017E1,1.046695456E-1,2.435061264E-1,-3.728289950E-1,4.574411513E-1
1.432567217E1,-4.654347114E-2,2.314889288E-1,-4.527290042E-1,5.106045144E-1
1.433573417E1,-1.329261421E-1,1.670584595E-1,-5.089569993E-1,5.519194827E-1
1.434579617E1,-1.736810160E-1,4.111995935E-2,-4.865257645E-1,5.182309001E-1
1.435585817E1,-1.979635524E-1,-2.237325972E-1,-4.176772852E-1,5.135174366E-1
1.436592017E1,-2.594560151E-1,-6.501109779E-1,-3.340501146E-1,7.755973094E-1
1.437598217E1,-2.900835845E-1,-9.445843595E-1,-1.948549533E-1,1.007152695E0
1.438604417E1,-2.534139410E-1,-9.303294325E-1,-9.042368174E-2,9.684564630E-1
1.439610517E1,-7.388044685E-2,-6.937148345E-1,9.506870985E-2,7.040856848E-1
1.440616717E1,2.350052250E-1,-3.198093671E-1,4.483316056E-1,5.987543033E-1
1.441622917E1,7.085294131E-1,-3.326364040E-2,5.684684984E-1,9.089977078E-1
1.442629117E1,1.142748252E0,1.203637648E-1,4.876437521E-1,1.248261764E0
1.443635317E1,1.449504295E0,2.515764534E-1,3.926661126E-1,1.522675307E0
1.444641517E1,1.676596264E0,3.596739292E-1,2.128104369E-1,1.727897176E0
1.445647717E1,1.801478026E0,3.366335607E-1,-1.080887049E-1,1.835845418E0
1.446653917E1,1.893087669E0,2.910217702E-2,-5.213232757E-1,1.963773362E0
1.447660117E1,1.847052394E0,-5.483320034E-1,-1.033158567E0,2.186249564E0
1.448666317E1,1.573281226E0,-1.255293120E0,-1.467310675E0,2.490778041E0
1.449672517E1,1.117558301E0,-1.895866120E0,-1.855339214E0,2.878459397E0
1.450678617E1,6.140083681E-1,-2.408479822E0,-2.126907006E0,3.271316973E0
1.451684817E1,1.581250834E-1,-2.687093800E0,-2.031063686E0,3.372046312E0
1.452691017E1,-3.646785611E-1,-2.832761976E0,-1.896369565E0,3.428374016E0
1.453697217E1,-6.217416032E-1,-3.199353161E0,-1.992899787E0,3.820218950E0
1.454703417E1,-6.238667737E-1,-3.910266411E0,-1.739300635E0,4.324876860E0
1.455709617E1,-3.661280859E-1,-4.650963038E0,-1.145347924E0,4.803886846E0
1.456715817E1,6.647524059E-2,-4.635198360E0,-6.396736979E-2,4.636116329E0
1.457722017E1,6.361373019E-1,-4.196388799E0,4.982927012E-1,4.273481629E0
1.458728217E1,7.020895091E-1,-4.242585311E0,3.504484847E-1,4.314542147E0
1.459734417E1,7.387899967E-1,-4.387284603E0,-4.910494629E-1,4.476070421E0
1.460740617E1,1.789123883E0,-4.327156515E0,-2.010063119E0,5.095645348E0
1.461746717E1,2.824726147E0,-4.098797600E0,-2.368702383E0,5.512709910E0
1.462752917E1,3.020282766E0,-3.820317523E0,-1.565856285E0,5.115548834E0
1.463759117E1,2.605527188E0,-3.379414074E0,-1.982703120E-2,4.267271321E0
1.464765317E1,1.630316868E0,-2.790891818E0,6.540303665E-1,3.297691003E0
1.465771517E1,6.269177046E-1,-2.465222372E0,4.685055229E-1,2.586473386E0
1.466777717E1,1.442481789E-1,-2.592837269E0,5.602518448E-1,2.656594581E0
1.467783917E1,-1.531268835E-2,-3.342721041E0,9.305481184E-1,3.469861415E0
1.468790117E1,-1.996523014E-1,-4.341752919E0,1.154630379E0,4.497093591E0
1.469796317E1,3.508382016E-1,-4.909837986E0,1.689685110E0,5.204289795E0
1.470802517E1,1.954723316E0,-3.591728813E0,2.070095312E0,4.583312526E0
1.471808617E1,2.382827502E0,-1.581888181E0,1.575559155E0,3.265367326E0
1.472814817E1,1.765770249E0,1.031390369E-1,9.658094600E-1,2.015284136E0
1.473821017E1,4.413355583E-1,1.871574447E0,1.201355772E0,2.267338457E0
1.474827217E1,-1.771699618E0,1.995457066E0,1.923245122E0,3.289322155E0
1.475833417E1,-2.153925381E0,3.961178702E-1,1.743792905E0,2.799485240E0
1.476839617E1,-8.067137387E-1,-1.176629943E0,9.895169958E-1,1.736199575E0
1.477845817E1,5.337721440E-1,-4.704353964E-1,4.076474100E-1,8.199991310E-1
1.478852017E1,1.213783736E0,7.160851121E-1,1.422185519E0,2.002163953E0
1.479858217E1,1.114467024E0,1.051377906E0,2.338150097E0,2.795420921E0
1.480864417E1,6.868414325E-1,5.323480546E-1,1.669059057E0,1.881728923E0
1.481870517E1,-4.030573457E-1,1.371370876E-1,1.726323763E0,1.778048239E0
1.482876717E1,-1.017506740E0,5.287052393E-1,2.389637169E0,2.650512214E0
1.483882917E1,-6.071196172E-1,2.019642904E0,2.464451709E0,3.243620495E0
1.484889117E1,-9.039748621E-1,2.917083503E0,2.340633409E0,3.847741087E0
1.485895317E1,-7.308680427E-1,3.506003954E0,2.527917387E0,4.383674046E0
1.486901517E1,-7.420853412E-1,3.583833318E0,2.424290108E0,4.389958363E0
1.487907717E1,-1.269243700E0,3.118808935E0,1.121517597E0,3.549049233E0
1.488913917E1,-1.847349140E0,2.320178095E0,4.518652242E-1,3.000017903E0
1.489920117E1,-2.218540330E0,2.107994918E0,1.135314102E0,3.264123447E0
1.490926317E1,-2.067328410E0,1.908480903E0,1.250365087E0,3.078889241E0
1.491932417E1,-1.685738239E0,1.677107164E0,9.871509200E-1,2.574658966E0
1.492938617E1,-1.412186780E0,1.780580662E0,1.142634816E0,2.543688919E0
1.493944817E1,-1.450243383E0,2.076288391E0,1.225143122E0,2.813388530E0
1.494951017E1,-1.454281178E0,2.399654034E0,1.215899259E0,3.058052360E0
1.495957217E1,-1.623197298E0,2.509638407E0,1.267852355E0,3.246614235E0
1.496963417E1,-1.993842650E0,2.516973739E0,1.220178251E0,3.435025514E0
1.497969617E1,-2.094334360E0,2.558973704E0,1.519797767E0,3.639281259E0
1.498975817E1,-2.036241688E0,2.610054980E0,1.650441522E0,3.699003167E0
1.499982017E1,-1.919726268E0,2.381542869E0,1.594288371E0,3.449471088E0
1.500988217E1,-1.671000625E0,2.119142050E0,1.549037354E0,3.111675246E0
1.501994317E1,-1.696392159E0,1.867922861E0,1.409163185E0,2.890090492E0
1.503000517E1,-1.801680047E0,1.643181619E0,1.273876156E0,2.751155628E0
1.504006717E1,-1.842651195E0,1.375689629E0,1.005980709E0,2.509956687E0
1.505012917E1,-1.554518534E0,1.098556166E0,9.121188641E-1,2.110761555E0
1.506019117E1,-1.266658938E0,9.243711197E-1,1.172486606E0,1.957961101E0
1.507025317E1,-1.098281639E0,8.363360256E-1,7.893863922E-1,1.590223689E0
1.508031517E1,-7.531646454E-1,7.751221097E-1,3.710567039E-1,1.142696086E0
1.509037717E1,-8.326031631E-1,6.532380688E-1,1.252362496E-1,1.065660415E0
1.510043525E1,-1.156416703E0,6.547858268E-1,7.681838036E-2,1.331144295E0
1.511049725E1,-1.239224387E0,7.611396629E-1,1.624654716E-1,1.463354262E0
1.512055925E1,-9.981740910E-1,7.352908766E-1,1.556441098E-1,1.249491608E0
1.513062025E1,-4.295604354E-1,6.599682140E-1,1.682875443E-1,8.052334499E-1
1.514068225E1,-2.264538914E-2,6.080981487E-1,2.897891772E-1,6.739984713E-1
1.515074425E1,9.263275981E-2,7.153395921E-1,5.159413522E-1,8.868410450E-1
1.516080625E1,4.604039133E-2,7.658800006E-1,7.184011942E-1,1.051090942E0
1.517086825E1,-2.068598717E-2,7.143707085E-1,6.677040803E-1,9.780501818E-1
1.518093025E1,5.936976260E-1,7.369093859E-1,5.729283160E-1,1.106236489E0
1.519099225E1,1.181827826E0,6.470803660E-1,5.171353537E-1,1.443211344E0
1.520105425E1,6.005394530E-1,4.351135361E-1,4.393270397E-1,8.619626858E-1
1.521111625E1,-3.188705966E-1,4.781876349E-1,2.778865850E-1,6.384064737E-1
1.522117825E1,-7.724753675E-1,6.903047383E-1,-7.268498361E-2,1.038519105E0
1.523123925E1,-6.141839308E-1,8.037360442E-1,-1.449249941E-1,1.021869259E0
1.524130125E1,-4.723284325E-1,5.828364229E-1,-2.168673813E-2,7.505083335E-1
1.525136325E1,-4.054985583E-1,3.801666659E-1,1.003382206E-2,5.559284596E-1
1.526142525E1,-2.788072291E-1,2.863311338E-1,1.160736626E-1,4.161635308E-1
1.527148725E1,-1.819565803E-1,7.688854694E-2,4.551238775E-2,2.027101951E-1
1.528154925E1,-9.342125684E-2,-8.970213532E-2,-7.540393889E-2,1.498658010E-1
1.529161125E1,-1.986685073E-1,-6.929535270E-3,8.543366790E-3,1.989728207E-1
1.530167325E1,-5.269639385E-1,-1.433152556E-2,-2.781403542E-2,5.278920398E-1
1.531173525E1,-8.493586519E-1,-1.193416715E-2,2.057547480E-1,8.740066134E-1
1.532179625E1,-8.601862335E-1,1.604090059E-1,4.081520247E-1,9.655254946E-1
1.533185825E1,-6.412933767E-1,1.959103757E-1,2.244202298E-1,7.071085559E-1
1.534192025E1,-4.287678453E-1,7.475022018E-2,2.384745973E-1,4.962857989E-1
1.535198225E1,-4.425979722E-1,6.528065443E-2,5.643159521E-1,7.201437513E-1
1.536204425E1,-7.129077351E-1,3.256191605E-1,7.280906153E-1,1.069757552E0
1.537210625E1,-9.783821431E-1,5.695725989E-1,5.859915805E-1,1.274766918E0
1.538216825E1,-9.389625540E-1,8.880476314E-1,6.937733066E-1,1.466833554E0
1.539223025E1,-7.327716038E-1,1.189190932E0,8.286902064E-1,1.624148009E0
1.540229225E1,-4.878899199E-1,1.110484486E0,9.259030902E-1,1.525945248E0
1.541235425E1,-2.562571496E-1,1.132430255E0,1.347213689E0,1.778496762E0
1.542241525E1,-1.439046550E-1,1.221883299E0,1.387027380E0,1.854063726E0
1.543247725E1,-3.912728673E-1,1.080873016E0,8.403577405E-1,1.423931903E0
1.544253925E1,-6.969916141E-1,1.122748436E0,1.050409607E0,1.688111875E0
1.545260125E1,-7.741810003E-1,1.261868314E0,1.752542678E0,2.294138989E0
1.546266325E1,-7.554611394E-1,1.209114735E0,2.048470847E0,2.495778994E0
1.547272525E1,-9.126416051E-1,1.147078115E0,2.051627174E0,2.521483088E0
1.548278725E1,-1.170857864E0,1.249108520E0,2.316369218E0,2.880407365E0
1.549284925E1,-1.307512264E0,1.250679667E0,2.539631699E0,3.118255461E0
1.550291125E1,-1.268033911E0,1.048438511E0,2.588111549E0,3.066831378E0
1.551297225E1,-1.103789716E0,1.042275546E0,2.982480517E0,3.346622190E0
1.552303425E1,-1.042987444E0,1.049415581E0,3.002927645E0,3.347636526E0
1.553309625E1,-1.090846027E0,1.021430222E0,2.844416646E0,3.213093651E0
1.554315825E1,-1.155513893E0,1.039458942E0,2.933406006E0,3.319722585E0
1.555322025E1,-1.481728593E0,9.811622018E-1,2.697096632E0,3.229942590E0
1.556328225E1,-1.667223323E0,8.853111345E-1,2.372942199E0,3.032204494E0
1.557334425E1,-1.552760861E0,8.164128077E-1,2.345466717E0,2.928960615E0
1.558340625E1,-1.345855966E0,8.591144389E-1,2.561023153E0,3.017986993E0
1.559346825E1,-1.187399053E0,8.145165557E-1,2.662462989E0,3.026889971E0
1.560352925E1,-1.060525875E0,5.526706374E-1,2.449771689E0,2.726085342E0
1.561359125E1,-8.242586017E-1,3.951969337E-1,2.380288056E0,2.549775302E0
1.562365325E1,-6.445926681E-1,2.870532650E-1,2.439864752E0,2.539850250E0
1.563371525E1,-4.691624576E-1,3.261565197E-1,2.462041194E0,2.527476672E0
1.564377725E1,-3.461680305E-1,3.675641620E-1,2.266812311E0,2.322363833E0
1.565383925E1,-3.833800033E-1,2.871450663E-1,2.204788556E0,2.256219203E0
1.566390125E1,-3.641248298E-1,3.393607020E-2,2.213236029E0,2.243245922E0
1.567396325E1,-3.543783984E-1,-7.543551385E-2,2.367314546E0,2.394880525E0
1.568402425E1,-3.707409543E-1,-6.696991503E-2,2.312446906E0,2.342935022E0
1.569408625E1,-3.609509611E-1,-1.136874139E-2,2.112687893E0,2.143330347E0
1.570414825E1,-4.233647257E-1,1.016596913E-2,2.029179128E0,2.072898689E0
1.571421025E1,-5.585482585E-1,-3.120542049E-2,2.031935214E0,2.107536630E0
1.572427225E1,-5.662537193E-1,-1.344485378E-1,2.133647822E0,2.211599582E0
1.573433425E1,-6.228030190E-1,-3.685108262E-1,2.316498442E0,2.426901082E0
1.574439625E1,-6.547599529E-1,-7.181678903E-1,2.338835098E0,2.532711063E0
1.575445825E1,-6.916571993E-1,-1.062015746E0,2.199264984E0,2.538313140E0
1.576452025E1,-8.297011900E-1,-1.422644525E0,2.212498695E0,2.758164604E0
1.577458125E1,-9.888723403E-1,-1.909340444E0,2.263292288E0,3.121849038E0
1.578464325E1,-9.665241359E-1,-2.442283160E0,2.262018472E0,3.466358825E0
1.579470525E1,-9.106754789E-1,-3.071145941E0,2.257655864E0,3.918963794E0
1.580476725E1,-9.138401382E-1,-3.637716579E0,2.437568404E0,4.473234337E0
1.581482925E1,-8.585732791E-1,-4.149890571E0,2.502968488E0,4.921746750E0
1.582489125E1,-7.045392001E-1,-4.744552987E0,2.074644738E0,5.226022323E0
1.583495325E1,-5.156928456E-1,-5.417615456E0,1.329349276E0,5.602112623E0
1.584501525E1,-2.097361171E-1,-5.843091027E0,3.859314358E-1,5.859577208E0
1.585507625E1,2.901172060E-1,-6.038748218E0,2.874608159E-2,6.045781535E0
1.586513825E1,6.651887543E-1,-6.133549125E0,-1.439618115E-1,6.171193236E0
1.587520025E1,9.710302927E-1,-6.020519523E0,-7.864494820E-1,6.148825737E0
1.588526225E1,1.324717258E0,-5.910747405E0,-1.905639887E0,6.350060950E0
1.589532425E1,1.392294406E0,-5.584028383E0,-2.426961262E0,6.245798401E0
1.590538625E1,1.319114310E0,-5.012226241E0,-2.923265179E0,5.950458281E0
1.591544825E1,9.856337138E-1,-3.909621463E0,-1.526946573E0,4.311401122E0
1.592551025E1,9.376413757E-1,-2.410946177E0,-2.625183481E-1,2.600143977E0
1.593557225E1,1.258517421E0,-8.851655388E-1,2.228156807E-1,1.554680339E0
1.594563325E1,2.027525097E0,-2.537025011E-1,-2.680902330E-1,2.060848212E0
1.595569525E1,2.932890866E0,-1.040590963E0,-1.092003191E0,3.298052357E0
1.596575725E1,3.230459179E0,-1.728808830E0,-1.022240061E0,3.803895532E0
1.597581925E1,3.413420311E0,-2.012168409E0,-3.070829022E-1,3.974237012E0
1.598588125E1,3.448623765E0,-2.138653623E0,7.478471875E-2,4.058625130E0
1.599594325E1,3.054175859E0,-1.957456012E0,1.236312071E-1,3.629725733E0
1.600600525E1,2.128423920E0,-1.937778377E0,1.999420675E-1,2.885333646E0
1.601606725E1,8.986197627E-1,-2.293828787E0,-3.548546175E-1,2.488993728E0
1.602612925E1,-2.539755660E-1,-2.519336014E0,-1.569427764E0,2.979036933E0
1.603619025E1,-1.297573752E0,-2.288143539E0,-2.118602936E0,3.377540066E0
1.604625225E1,-1.867498353E0,-1.601921327E0,-1.903099126E0,3.110544698E0
1.605631425E1,-1.953546856E0,-9.547427273E-1,-5.536213946E-1,2.243741438E0
1.606637625E1,-1.477486730E0,-1.017817812E0,1.743133339E0,2.501486353E0
1.607643825E1,-6.682805427E-1,-1.452892756E0,4.182641995E0,4.477944875E0
1.608650025E1,2.940773059E-1,-1.684833675E0,5.620402157E0,5.874867350E0
1.609656225E1,1.275636168E0,-1.569697906E0,5.953564811E0,6.287776483E0
1.610662475E1,1.998035396E0,-1.350690444E0,5.246932307E0,5.774669580E0
1.611668575E1,2.558830155E0,-1.218991851E0,3.769132751E0,4.715921394E0
1.612674775E1,2.769819623E0,-1.237819886E0,2.520326532E0,3.944127868E0
1.613680975E1,2.231099272E0,-1.233489438E0,1.558485431E0,2.988005521E0
1.614687175E1,1.292765879E0,-1.355013875E0,1.244672091E0,2.248669570E0
1.615693375E1,1.116835000E-1,-1.450801792E0,1.852962614E0,2.356007108E0
1.616699575E1,-1.074683446E0,-1.019352121E0,2.805920917E0,3.172887557E0
1.617705775E1,-1.884485684E0,-1.113871193E-1,3.748820693E0,4.197302702E0
1.618711975E1,-2.288023086E0,6.457904702E-1,4.466190731E0,5.059540950E0
1.619718075E1,-2.396338078E0,1.303276541E0,5.145802374E0,5.824109202E0
1.620724275E1,-1.770688635E0,2.070969763E0,6.281121154E0,6.846658817E0
