"Time (s)","Linear Acceleration x (m/s^2)","Linear Acceleration y (m/s^2)","Linear Acceleration z (m/s^2)","Absolute acceleration (m/s^2)"
3.058054167E-2,6.546104103E-2,1.587114861E-1,-4.935342371E-2,1.786343868E-1
4.064254166E-2,-1.418066740E-2,1.365927118E-1,-7.512502670E-3,1.375321706E-1
5.070554165E-2,-1.149831569E-1,2.829051040E-2,1.473638678E-1,1.890438808E-1
6.076854165E-2,-1.579040587E-1,3.389038883E-2,3.407277811E-1,3.770645449E-1
7.083154167E-2,-1.043915105E-1,1.040096873E-1,4.163691169E-1,4.416773076E-1
8.089354166E-2,-8.288749784E-2,1.195349219E-1,3.684260416E-1,3.961018594E-1
9.095654165E-2,-4.210053742E-2,7.909952536E-2,2.294400644E-1,2.463167338E-1
1.010195417E-1,-3.022133410E-3,-3.029617846E-2,-1.515598297E-2,3.401022698E-2
1.110825417E-1,6.197463870E-3,-7.427381828E-2,-1.996069854E-1,2.130679640E-1
1.211445417E-1,4.978641003E-2,-4.126745537E-2,-2.775743437E-1,2.850073784E-1
1.312075416E-1,1.030410960E-1,-5.573127419E-4,-2.867954028E-1,3.047447803E-1
1.412705417E-1,9.901850402E-2,-2.786607563E-2,-2.183057964E-1,2.413267558E-1
1.513325417E-1,1.284063175E-1,1.769601345E-2,-1.506476641E-1,1.987361315E-1
1.613955417E-1,6.362940073E-2,-1.117595138E-1,-1.311758512E-1,1.837008261E-1
1.714585416E-1,9.873315990E-3,-1.327798156E-1,1.760245800E-2,1.343049080E-1
1.815215417E-1,2.538422495E-2,1.785505772E-2,1.462289232E-1,1.494859858E-1
1.915835417E-1,4.614330232E-3,-1.865079068E-2,-3.469153047E-3,1.952380750E-2
2.016465417E-1,-4.615441203E-2,-8.999595791E-4,1.686921716E-2,4.914885721E-2
2.117095416E-1,-8.452998072E-2,-3.283825547E-2,1.262940109E-2,9.155965506E-2
2.217725417E-1,-1.399262094E-1,-1.002652035E-1,4.943177640E-2,1.790976148E-1
2.318345417E-1,-9.385190427E-2,-1.614362155E-1,1.066502899E-1,2.150444511E-1
2.418975417E-1,-4.869678140E-2,-1.002594294E-1,9.600367963E-2,1.471055274E-1
2.519605417E-1,4.716422617E-2,-4.425245896E-3,1.742984819E-1,1.806211722E-1
2.620235417E-1,5.204986721E-2,-2.741605930E-2,1.057977659E-1,1.210536916E-1
2.720855417E-1,6.809199572E-2,2.595257431E-2,1.575982493E-1,1.736296754E-1
2.821485416E-1,1.685597321E-1,1.011426513E-1,1.081249577E-1,2.243506757E-1
2.922115417E-1,2.293280903E-1,1.135292467E-1,2.893319249E-2,2.575216350E-1
3.022745417E-1,2.708102846E-1,1.308716498E-1,6.336861491E-2,3.073779113E-1
3.123365417E-1,1.658811226E-1,6.910312548E-2,-4.759341180E-2,1.858949210E-1
3.223995416E-1,1.749752972E-1,6.212812811E-3,-1.465867728E-1,2.283476201E-1
3.324625417E-1,9.082772434E-2,-5.461080149E-2,-4.570242226E-2,1.154154519E-1
3.425255417E-1,3.144340217E-3,-9.251640022E-2,2.096577644E-2,9.491435596E-2
3.525875417E-1,-7.692626148E-2,-4.478382468E-2,-3.321510851E-2,9.500781069E-2
3.626505416E-1,-7.980133742E-2,-4.020837843E-2,-2.672937691E-2,9.327071749E-2
3.727135417E-1,-2.354001313E-2,3.897900134E-3,-3.819985986E-3,2.416439813E-2
3.827765417E-1,9.199745983E-2,7.607914612E-2,-1.524135232E-2,1.203489423E-1
3.928385417E-1,2.432090878E-2,-2.211285397E-2,-9.877759874E-2,1.041033089E-1
4.029015417E-1,-1.484979352E-1,-5.939375080E-2,-1.611516023E-1,2.270442541E-1
4.129645417E-1,-1.163300630E-1,-1.171245535E-1,-2.899628395E-1,3.336604455E-1
4.230275417E-1,-1.854649097E-2,-1.735100580E-1,-3.704228657E-1,4.094664968E-1
4.330895416E-1,1.071794629E-1,-1.169467981E-1,-2.962538588E-1,3.360510969E-1
4.431525417E-1,1.221357635E-1,-1.895921668E-1,-3.460557640E-1,4.130580180E-1
4.532155417E-1,-1.350239038E-2,-2.597302495E-1,-3.510755986E-1,4.369166888E-1
4.632785417E-1,-8.878002942E-2,-2.937195294E-1,-3.755923891E-1,4.849976271E-1
4.733405416E-1,-1.306276748E-1,-2.299800548E-1,-4.330190635E-1,5.074050890E-1
4.834035417E-1,-2.354118258E-1,-1.578368157E-1,-3.133429313E-1,4.225103320E-1
4.934665417E-1,-2.911308208E-1,-1.815083912E-1,-1.424095219E-1,3.714605266E-1
5.035285417E-1,-9.488072187E-2,-1.325125247E-1,-3.547973514E-2,1.667954801E-1
5.135915416E-1,1.308516231E-1,-4.920373499E-2,7.026365161E-2,1.564612909E-1
5.236545417E-1,2.521410021E-1,-6.626649499E-3,9.192817032E-2,2.684581642E-1
5.337175417E-1,2.558566153E-1,-1.330490068E-2,8.170606792E-2,2.689154319E-1
5.437795417E-1,1.250979629E-1,-3.282086000E-2,5.874756038E-2,1.420492345E-1
5.538425417E-1,-6.993796170E-2,-1.550491557E-2,2.662529647E-2,7.642399692E-2
5.639055417E-1,-1.400837919E-1,-5.771260321E-2,-7.165762782E-2,1.675978191E-1
5.739685417E-1,-9.733304411E-2,-1.708218737E-1,-2.396370238E-1,3.099673163E-1
5.840305416E-1,-7.761711001E-2,-3.088472995E-1,-4.220093411E-1,5.286803894E-1
5.940935417E-1,-1.643012050E-1,-3.345333870E-1,-5.208237773E-1,6.404411604E-1
6.041565417E-1,-3.008243349E-1,-2.582216679E-1,-3.124775434E-1,5.047929529E-1
6.142195417E-1,-3.342920431E-1,-2.724844886E-1,-3.555253297E-1,5.589250636E-1
6.242815416E-1,-1.887969455E-1,-3.370069054E-1,-3.552616203E-1,5.248130712E-1
6.343445417E-1,-6.929973811E-2,-5.122529286E-1,-7.232011735E-2,5.219537489E-1
6.444075417E-1,-8.990181774E-2,-4.992025280E-1,1.053679955E-1,5.180616906E-1
6.544705417E-1,-2.948171979E-1,-6.205164653E-1,6.922278875E-1,9.752626888E-1
6.645325416E-1,-5.959321395E-1,-6.397043958E-1,8.061404192E-1,1.189209487E0
6.745955417E-1,-8.910791203E-1,-7.359165287E-1,4.764650452E-1,1.250045629E0
6.846585417E-1,-7.312103972E-1,-7.003023076E-1,4.940610713E-1,1.126582580E0
6.947215417E-1,-1.894319531E-1,-5.894668731E-1,1.711947799E-1,6.423887546E-1
7.047835417E-1,-6.397292465E-2,-3.459040287E-1,-1.863074934E-1,3.980610685E-1
7.148465417E-1,-1.602166325E-2,2.601835549E-2,-8.078747034E-2,8.637281910E-2
7.249095417E-1,-8.517960638E-2,1.718359271E-1,1.365359938E-1,2.354256332E-1
7.349725417E-1,5.801636606E-2,2.847465384E-1,3.360657960E-1,4.442822404E-1
7.450345417E-1,1.892936665E-1,4.305597246E-1,3.648498845E-1,5.952555811E-1
7.550975417E-1,1.563565931E-1,3.773974246E-1,3.087581295E-1,5.120622841E-1
7.651605417E-1,1.549082378E-1,3.349554098E-1,1.181815839E-1,3.875030005E-1
7.752235417E-1,3.065566528E-1,2.541147298E-1,-1.140312302E-1,4.141912586E-1
7.852855417E-1,2.782146138E-1,1.091260010E-1,-3.669531280E-1,4.732509414E-1
7.953485417E-1,2.060494477E-1,2.192612314E-1,-2.829871112E-1,4.130539524E-1
8.054115417E-1,1.759666926E-1,2.522968304E-1,2.859563273E-1,4.199868911E-1
8.154745417E-1,7.951306969E-2,2.750477618E-1,2.368800616E-1,3.715989278E-1
8.255397917E-1,-8.970798254E-3,1.366000208E-1,-9.242927670E-2,1.651763061E-1
8.356027917E-1,-2.111830106E-1,-2.874327493E-1,-1.220682281E-1,3.769834236E-1
8.456657917E-1,-1.709135288E-1,-5.870627904E-1,-4.191705179E-1,7.413218446E-1
8.557287916E-1,-8.623444408E-2,-8.514542940E-1,-7.160786802E-1,1.115876100E0
8.657907917E-1,-2.556885079E-1,-1.132684025E0,-7.108308041E-1,1.361480865E0
8.758537917E-1,-6.243162784E-1,-1.353710823E0,-1.505295503E-1,1.498320043E0
8.859167917E-1,-8.009051147E-1,-1.322421202E0,7.113845354E-1,1.701856280E0
8.959797916E-1,-7.192355919E-1,-1.025222726E0,1.233860151E0,1.758064944E0
9.060417917E-1,-6.227144337E-1,-5.197233313E-1,1.640580778E0,1.830134119E0
9.161047917E-1,-2.316973820E-1,2.863457519E-1,1.589793617E0,1.631907261E0
9.261677917E-1,4.075737351E-1,2.386330569E-1,2.631527710E-1,5.406583637E-1
9.362297917E-1,6.291031015E-1,4.746184945E-3,-1.073922431E0,1.244629514E0
9.462927917E-1,5.554638523E-1,-2.177216595E-1,-1.640001318E0,1.745149603E0
9.563557917E-1,3.559749806E-1,-6.062007272E-1,-2.327421041E0,2.431272549E0
9.664187916E-1,9.475325257E-2,-9.302142423E-1,-1.995623127E0,2.203812238E0
9.764817917E-1,-1.312056720E-1,-1.176539311E0,-1.006801073E0,1.554061801E0
9.865437917E-1,-9.860159755E-2,-1.356338269E0,-3.673636025E-1,1.408663122E0
9.966067917E-1,1.314661655E-1,-1.153908248E0,2.186823571E-1,1.181782370E0
1.006669792E0,3.573172089E-1,-6.973523873E-1,6.199188799E-1,9.991373066E-1
1.016731792E0,1.179374626E-1,-3.560106486E-1,5.905816448E-1,6.995995327E-1
1.026794792E0,-4.268379718E-1,-4.135326326E-1,3.867833751E-1,7.090848128E-1
1.036857792E0,-7.632452452E-1,-5.586622792E-1,1.483584791E-1,9.574221038E-1
1.046920792E0,-9.884150881E-1,-3.967903000E-1,6.012794182E-1,1.223087841E0
1.056982792E0,-9.694537371E-1,2.170346117E-1,1.527868094E0,1.822450407E0
1.067045792E0,-7.661437100E-1,8.441011280E-1,1.793574637E0,2.125180669E0
1.077108792E0,-3.929007322E-1,7.621851450E-1,5.939557806E-1,1.043111044E0
1.087171792E0,-1.673549134E-1,-2.583551306E-1,-8.965360343E-1,9.479092263E-1
1.097233792E0,-5.298395991E-2,-1.133833587E0,-7.784713948E-1,1.376373356E0
1.107296792E0,1.151737761E-1,-1.208815942E0,8.723811865E-1,1.495175546E0
1.117359792E0,1.077489817E-1,-8.614930862E-1,1.881748018E0,2.072379256E0
1.127422792E0,1.992438734E-1,-6.815871245E-1,2.759907423E0,2.849797907E0
1.137484792E0,3.910600287E-1,-4.411963946E-1,2.159813527E0,2.238833776E0
1.147547792E0,8.822530407E-1,2.108008951E-1,3.361590591E-1,9.673729158E-1
1.157610792E0,1.095152501E0,8.773010337E-1,-1.187546695E0,1.838282693E0
1.167673792E0,2.846892357E-1,9.194910336E-1,-2.069207413E0,2.282133002E0
1.177735792E0,-7.614846486E-1,-7.956306338E-2,-2.403758195E0,2.522745055E0
1.187798792E0,-1.067405124E0,-9.178625840E-1,-5.194727781E-1,1.500559026E0
1.197861792E0,-1.587920753E0,-1.018613033E0,2.013292243E0,2.759059711E0
1.207924792E0,-1.556266267E0,-7.020430237E-1,3.186570855E0,3.615115892E0
1.217986792E0,-1.150393487E0,-3.961909604E-1,2.689547292E0,2.951954791E0
1.228049792E0,-7.307206929E-1,3.533530891E-2,1.638317905E0,1.794237128E0
1.238112792E0,-2.236174071E-1,3.837492549E-1,7.397990799E-1,8.628852265E-1
1.248175792E0,-3.385298127E-1,-5.656830311E-2,-1.718683791E-1,3.838504224E-1
1.258237792E0,-7.635814601E-1,-1.362746233E-1,1.039452948E0,1.296954067E0
1.268300792E0,-1.330739159E0,-6.462798822E-1,1.473942587E0,2.088312990E0
1.278363792E0,-1.918770833E0,-1.253469374E0,1.023352055E0,2.510003269E0
1.288426792E0,-2.616760567E0,-1.715673645E0,1.169044350E0,3.340304868E0
1.298488792E0,-2.631838197E0,-2.057576716E0,1.693882826E0,3.745588507E0
1.308551792E0,-2.608052893E0,-2.766689608E0,1.769189701E0,4.193631300E0
1.318614792E0,-3.101247407E0,-3.421894096E0,2.063486497E0,5.058168760E0
1.328677792E0,-2.822827556E0,-3.185691141E0,3.619182660E0,5.587080328E0
1.338739792E0,-2.849832337E0,-3.099632406E0,3.127271025E0,5.244910816E0
1.348802792E0,-3.411879569E0,-3.260709164E0,2.298909432E0,5.249583891E0
1.358865792E0,-3.437937686E0,-2.804669028E0,1.971144344E0,4.854996798E0
1.368928792E0,-3.371171839E0,-1.926575696E0,2.633510501E0,4.691681046E0
1.378990792E0,-3.841022514E0,-1.445052225E0,3.251971670E0,5.236119711E0
1.389053792E0,-4.048472954E0,-1.150667721E0,3.341343437E0,5.373894810E0
1.399116792E0,-3.742394603E0,-7.259253913E-1,2.759598105E0,4.706152010E0
1.409179792E0,-3.395988007E0,1.981913745E-2,2.431106207E0,4.176530226E0
1.419241792E0,-3.400037788E0,7.367328000E-1,2.589886179E0,4.337112242E0
1.429304792E0,-3.058238797E0,1.042014175E0,2.127598293E0,3.868500042E0
1.439367792E0,-2.870399333E0,1.373585216E0,1.488574221E0,3.513087230E0
1.449430792E0,-3.117752928E0,1.923773126E0,1.074165090E0,3.817737157E0
1.459492792E0,-3.519267778E0,2.638286507E0,6.684324972E-1,4.448887882E0
1.469555792E0,-3.423295673E0,3.006437729E0,1.106174795E-1,4.557395891E0
1.479618792E0,-2.711557966E0,3.240595912E0,3.775064752E-1,4.242230499E0
1.489681792E0,-1.817121082E0,3.544103826E0,4.401150982E-1,4.007031602E0
1.499743792E0,-9.323525691E-1,3.507529492E0,-8.253871143E-1,3.722003270E0
1.509806792E0,-4.152382654E-1,3.607642595E0,-1.367082528E0,3.880260629E0
1.519869792E0,-1.592068183E-1,4.004029437E0,-1.317925571E0,4.218355883E0
1.529932792E0,-5.634903252E-2,4.059931743E0,-1.634122528E0,4.376822752E0
1.539994792E0,1.182985282E-1,4.058502098E0,-1.772126319E0,4.430108973E0
1.550057792E0,4.676433510E-1,4.239707896E0,-2.316668888E0,4.853943560E0
1.560120792E0,8.095920306E-1,4.234851784E0,-2.467803625E0,4.967842954E0
1.570183792E0,1.140287744E0,4.184644082E0,-2.483455744E0,4.997905027E0
1.580245792E0,1.572085909E0,3.984895594E0,-3.474718426E0,5.515842197E0
1.590308792E0,1.981391004E0,3.923930769E0,-3.608553299E0,5.687248887E0
1.600371792E0,2.326048114E0,3.975114371E0,-4.623060125E0,6.525696822E0
1.610434792E0,3.157096503E0,4.637734882E0,-3.278650761E0,6.498106953E0
1.620496792E0,3.804473907E0,4.353273688E0,-3.378999799E0,6.696465721E0
1.630559792E0,4.360379224E0,4.004546331E0,-3.418382843E0,6.836273806E0
1.640622792E0,4.342872076E0,4.183910841E0,-2.691306134E0,6.603694156E0
1.650685792E0,4.177379501E0,3.842055132E0,-1.756589536E0,5.941169407E0
1.660747792E0,4.003013484E0,3.039156409E0,-1.285097548E0,5.187683909E0
1.670810792E0,4.051964619E0,2.400133506E0,-1.225985706E0,4.866425698E0
1.680873792E0,4.478686231E0,2.100316354E0,-1.417426470E0,5.145780499E0
1.690936792E0,4.891343243E0,2.159521167E0,-8.498938914E-1,5.413971742E0
1.700998792E0,5.111288014E0,2.178992395E0,-2.320152147E-1,5.561214263E0
1.711061792E0,5.100149653E0,2.034103653E0,-6.918018082E-2,5.491255781E0
1.721124792E0,4.928384185E0,1.754249480E0,8.334270358E-2,5.231950680E0
1.731187792E0,4.647888280E0,1.239431963E0,9.494405452E-1,4.903110686E0
1.741250792E0,4.313454734E0,4.564014941E-1,1.542086184E0,4.603501262E0
1.751312792E0,3.242330196E0,6.247632980E-2,2.513224504E0,4.102792439E0
1.761375792E0,2.652270415E0,-1.519586098E-1,2.856680888E0,3.901058250E0
1.771438792E0,2.472440467E0,-5.639955246E-1,2.580202020E0,3.617802549E0
1.781501792E0,2.683927241E0,-1.273883758E0,2.488184388E0,3.875217001E0
1.791563792E0,2.603476862E0,-1.615341856E0,2.504852461E0,3.957487452E0
1.801626792E0,2.779202357E0,-1.362778392E0,2.789864463E0,4.167070243E0
1.811689792E0,3.218546062E0,-7.215738934E-1,2.843898582E0,4.355165529E0
1.821749542E0,3.630502285E0,-7.275795686E-1,3.605554554E0,5.168166262E0
1.831811542E0,2.844539145E0,-1.356502576E0,4.894164232E0,5.821026174E0
1.841874542E0,2.792362686E0,-2.105452548E0,4.910681155E0,6.028682211E0
1.851937542E0,9.383488888E-1,-5.297097909E-1,5.439830782E0,5.545525227E0
1.862000542E0,1.993035442E0,-3.718829155E-4,3.433385628E0,3.969927869E0
1.872062542E0,1.739712718E0,-1.066151481E0,4.238606573E0,4.704154016E0
1.882125542E0,1.649328212E0,2.417607325E-1,4.541058773E0,4.837349127E0
1.892188542E0,1.632690545E0,2.016330457E0,3.530989983E0,4.381684287E0
1.902251542E0,1.490886502E0,2.880992734E0,2.091948696E0,3.859936663E0
1.912313542E0,1.695710081E0,3.678414955E0,7.299430132E-1,4.115699948E0
1.922376542E0,1.764944330E0,4.214431552E0,5.426169348E-1,4.601184080E0
1.932439542E0,1.732486728E0,4.320474901E0,-2.772831523E-1,4.663142672E0
1.942502542E0,1.766240950E0,4.340471209E0,-1.238223928E0,4.846905808E0
1.952564542E0,1.641519256E0,4.102726344E0,-1.637837849E0,4.712691560E0
1.962627542E0,1.684208023E0,3.789268223E0,-1.808583270E0,4.523945598E0
1.972690542E0,1.517961449E0,3.267238165E0,-1.324183261E0,3.838295650E0
1.982753542E0,1.064645239E0,2.585528249E0,-5.434074783E-1,2.848458794E0
1.992815542E0,6.943934038E-1,2.361920198E0,-3.051199919E-1,2.480715104E0
2.002878542E0,4.459744468E-1,1.397965182E0,-1.013899593E0,1.783589707E0
2.012941542E0,-1.133374581E-1,-8.637039185E-1,-4.337002641E-1,9.731011033E-1
2.023004542E0,-6.417257783E-1,-1.625876200E0,3.158540180E-1,1.776245803E0
2.033067542E0,1.580125245E-1,-1.141201664E0,-1.199831110E-1,1.158319965E0
2.043129542E0,5.535354406E-2,-3.783869489E0,6.556304571E-1,3.840648854E0
2.053192542E0,1.579303127E0,-5.701143435E0,7.127978075E-1,5.958633698E0
2.063255542E0,-2.793369868E-1,-5.018748810E0,5.887948526E0,7.741692749E0
2.073318542E0,-9.703205869E-1,-3.813105567E0,6.020244704E0,7.191984594E0
2.083380542E0,-1.166889651E0,-3.307308549E0,4.548513388E0,5.743596029E0
2.093443542E0,-9.117879117E-1,-2.442350988E0,2.837716321E0,3.853449035E0
2.103506542E0,-2.371516648E-1,-1.074153981E0,2.614358238E0,2.836356234E0
2.113569542E0,-4.269756737E-1,3.698580247E-1,1.773773918E0,1.861552335E0
2.123631542E0,-4.661844707E-1,8.610621464E-1,5.138676372E-1,1.105810078E0
2.133694542E0,-2.207306367E-1,6.424441087E-1,4.258433604E-1,8.017474755E-1
2.143757542E0,2.408044204E-1,3.010748881E-1,6.305201742E-1,7.390457004E-1
2.153820542E0,2.245216205E0,6.649231446E0,-1.284178658E0,7.134591050E0
2.163882542E0,6.110465487E0,7.546495458E0,-3.829975954E0,1.043820377E1
2.173945542E0,2.113636896E0,8.900198972E-1,-3.798763517E0,4.437364150E0
2.184008542E0,7.188090375E-1,-1.722648203E-1,-1.119430141E0,1.341449008E0
2.194071542E0,4.841719678E-1,-7.572822547E-1,-5.230258387E-1,1.039930255E0
2.204133542E0,-4.898756343E-1,-3.157899910E0,-2.158064041E-1,3.202949014E0
2.214196542E0,-1.066166976E0,-4.458530586E0,8.211458364E-1,4.657197386E0
2.224259542E0,-1.640097213E0,-4.467560441E0,2.688524029E0,5.466001886E0
2.234322542E0,-2.388323008E0,-3.812424366E0,3.441802403E0,5.664333158E0
2.244384542E0,-2.741534594E0,-2.732524327E0,3.155669197E0,4.994091430E0
2.254447542E0,-2.526821619E0,-1.132404528E0,2.625085248E0,3.815526185E0
2.264510542E0,-1.967356810E0,-3.599352998E-1,2.105371857E0,2.903900290E0
2.274573542E0,-1.367138661E0,-1.824711353E-1,1.693026501E0,2.183735920E0
2.284636542E0,-1.039821469E0,-4.695173836E-1,1.295597685E0,1.726339660E0
2.294698542E0,-9.782350856E-1,-6.857105809E-1,1.173473032E0,1.674569150E0
2.304761542E0,-1.449399045E-1,-5.909231222E-1,1.605269150E0,1.716708116E0
2.314824542E0,-4.340154290E-2,-5.580810660E-1,1.037051058E0,1.178479133E0
2.324887542E0,-4.497859544E-1,-9.505631375E-1,1.493353150E0,1.826466894E0
2.334949542E0,-5.676190442E-1,-1.223815219E0,1.711396699E0,2.179172717E0
2.345012542E0,-9.424039328E-1,-1.104596924E0,1.237455312E0,1.907761826E0
2.355075542E0,-7.515139765E-1,-1.152998421E0,1.102379368E0,1.763354441E0
2.365138542E0,-8.988661498E-2,-5.372105992E-1,3.104611310E-1,6.269457276E-1
2.375200542E0,4.159419778E-1,4.691922784E-2,3.029305020E-1,5.166972342E-1
2.385263542E0,1.299630218E0,7.364954031E-1,-1.887375963E-1,1.505684582E0
2.395326542E0,1.665929042E0,7.611221212E-1,-8.107161579E-1,2.002969582E0
2.405389542E0,1.805024362E0,5.417883843E-1,-1.229446088E0,2.250152280E0
2.415451542E0,1.721695692E0,5.781142116E-3,-1.598239335E0,2.349178250E0
2.425514542E0,1.544790814E0,-3.526338816E-1,-1.752154715E0,2.362366495E0
2.435577542E0,1.715958112E0,-4.909667248E-1,-1.553846981E0,2.366432126E0
2.445640542E0,1.872930416E0,-2.012471294E-1,-1.427207108E0,2.363321578E0
2.455703542E0,1.537826195E0,-1.633454776E-1,-8.352975601E-1,1.757644209E0
2.465765542E0,7.678034422E-1,-2.406298810E-1,-3.937091097E-1,8.957855371E-1
2.475828542E0,3.006687990E-1,-2.090344512E-1,-1.095516783E-1,3.822285948E-1
2.485891542E0,-3.134782943E-1,-1.780401152E-1,3.074772969E-1,4.738240304E-1
2.495954542E0,-6.367597380E-1,-1.457488668E-1,5.505685633E-1,8.543017260E-1
2.506016542E0,-2.444761795E-1,-1.327358884E-1,2.737660521E-1,3.903015113E-1
2.516079542E0,-6.787591186E-1,-7.993944865E-1,-1.129000863E-1,1.054747323E0
2.526142542E0,-6.663536659E-1,-1.147693827E0,1.159926787E-1,1.332172147E0
2.536205542E0,-9.384789893E-1,-7.401762253E-1,-7.883683920E-2,1.197839265E0
2.546267542E0,-1.187770936E0,5.587423861E-2,-5.023708418E-1,1.290851730E0
2.556330542E0,-1.545895353E0,5.785357958E-1,-1.379888807E0,2.151415634E0
2.566393542E0,-1.709782867E0,3.476842135E-1,-2.554756400E0,3.093706842E0
2.576456542E0,-1.924149979E0,4.686081415E-1,-2.317070884E0,3.048075494E0
2.586519542E0,-1.797780539E0,1.401168872E0,3.994922984E-1,2.314062050E0
2.596581542E0,-1.589698307E0,1.515597128E0,1.621383199E-1,2.202376942E0
2.606644542E0,-1.664391224E0,1.254021935E0,-1.161623064E0,2.385820049E0
2.616707542E0,-1.581739077E0,1.402470462E0,-1.243131935E0,2.452386371E0
2.626770542E0,-1.708176929E0,1.490505556E0,-2.603598484E-1,2.281942700E0
2.636832542E0,-1.438475862E0,1.180772111E0,5.982765806E-1,1.954832588E0
2.646895542E0,-8.539320517E-1,4.297557324E-1,9.614003670E-1,1.355795193E0
2.656958542E0,-6.212362576E-1,-1.972821325E-1,8.758307514E-1,1.091757406E0
2.667021542E0,-3.032082447E-1,-2.160376614E-1,1.069385576E0,1.132339623E0
2.677083542E0,9.861796975E-2,-3.373024821E-1,1.276475097E0,1.323966443E0
2.687146542E0,4.511208737E-1,-4.729573005E-1,1.606389184E0,1.734267817E0
2.697209542E0,5.702666634E-1,-7.171709400E-1,1.897498516E0,2.107139968E0
2.707272542E0,4.023156264E-1,-1.272161168E0,1.863099639E0,2.291591623E0
2.717334542E0,-5.356283426E-2,-1.438963519E0,1.622830531E0,2.169576899E0
2.727397542E0,-1.389953327E-1,-1.078900166E0,7.205360126E-1,1.304805509E0
2.737460542E0,-5.325404280E-1,-5.471116894E-1,-1.238519213E-1,7.734790279E-1
2.747523542E0,-9.122416556E-1,-1.925605059E-1,-7.517130741E-1,1.197638064E0
2.757586542E0,-3.681178933E-1,1.496173847E-1,-1.340014305E0,1.397688979E0
2.767648542E0,3.802953047E-1,3.710993886E-1,-9.879899955E-1,1.121812598E0
2.777711542E0,1.554646003E-1,3.542149687E-1,-2.948585670E-1,4.863939355E-1
2.787774542E0,-7.715985775E-3,1.898292714E-1,-2.822215645E-1,3.402112582E-1
2.797837542E0,-5.197853118E-1,-1.729349113E-1,-1.300125477E-1,5.630155561E-1
2.807899542E0,-1.309775721E0,-1.386749053E-1,3.110885373E-1,1.353336340E0
2.817962542E0,-1.602554580E0,1.831318706E-1,2.550461912E-1,1.633023889E0
2.828024958E0,-1.507914471E0,6.312542921E-1,3.876913016E-1,1.680057314E0
2.838087958E0,-1.129062259E0,9.938664472E-1,7.025685422E-1,1.660167057E0
2.848149958E0,-4.362063807E-1,9.212925607E-1,6.109523208E-1,1.188410168E0
2.858212958E0,-1.766742057E-1,1.237990040E-1,7.774459393E-1,8.068222586E-1
2.868275958E0,3.391613120E-1,-4.133952230E-1,7.881194468E-1,9.523960670E-1
2.878338958E0,6.010709649E-1,-9.620716274E-1,3.014533491E-1,1.173772654E0
2.888401958E0,9.642947388E-1,-9.526646268E-1,6.759850533E-1,1.514724406E0
2.898463958E0,1.538564406E0,7.861406028E-2,1.188736749E0,1.945881718E0
2.908526958E0,1.463624151E0,4.995714873E-1,2.277141126E-1,1.563208574E0
2.918589958E0,1.032134135E0,3.115554374E-1,-2.874524836E-1,1.115794154E0
2.928652958E0,9.398761815E-1,2.854610682E-1,-1.532157612E-1,9.941480410E-1
2.938714958E0,-1.924739671E-1,7.707016146E-1,-6.104960918E-2,7.967146676E-1
2.948777958E0,-8.606733066E-1,1.023665612E0,-3.268722188E-1,1.376769870E0
2.958840958E0,-1.014484899E0,7.796712434E-1,-4.748652470E-1,1.364757803E0
2.968903958E0,-1.002002263E0,3.939052838E-1,-3.962283826E-1,1.147243147E0
2.978965958E0,-7.892121452E-1,-2.311024278E-1,-3.177714662E-1,8.816137743E-1
2.989028958E0,-2.722744274E-1,-6.074847758E-1,-1.483049771E-1,6.820304120E-1
2.999091958E0,1.694411999E-1,-5.679675382E-1,3.553189230E-1,6.910491891E-1
3.009154958E0,5.141965431E-1,-4.335084754E-1,1.389416845E-1,6.867550327E-1
3.019217958E0,1.559774011E-1,-5.535447961E-1,-1.399215317E-1,5.918773741E-1
3.029279958E0,3.426941997E-1,-5.222171688E-1,-2.849266326E-1,6.865371599E-1
3.039342958E0,1.718379736E-1,-3.737569481E-1,-2.314034133E-1,4.719852594E-1
3.049405958E0,7.323345244E-2,-8.751820028E-2,-3.429713577E-2,1.191590007E-1
3.059468958E0,1.679624391E-1,5.349354476E-1,1.563334966E-1,5.820717105E-1
3.069530958E0,-3.050515795E-1,4.253761679E-1,3.167727618E-1,6.118384860E-1
3.079593958E0,-8.659843326E-2,-6.308151662E-2,5.231604709E-1,5.340182063E-1
3.089656958E0,1.156228423E-2,-2.902785891E-1,4.604775882E-1,5.444584051E-1
3.099719958E0,1.646646094E-1,-3.205408537E-1,1.786210361E-1,4.022018735E-1
3.109782958E0,6.207611713E-1,-1.815753418E-1,-3.098555057E-1,7.171641869E-1
3.119844958E0,6.878091466E-1,2.284857988E-2,-6.127624726E-1,9.214560910E-1
3.129907958E0,3.285091469E-1,-2.861334980E-2,-7.815365052E-1,8.482548511E-1
3.139970958E0,-1.576298243E-1,2.284723502E-1,-2.313462567E-1,3.613417590E-1
3.150033958E0,-5.837497580E-1,1.257829642E-1,3.618583028E-1,6.982310258E-1
3.160095958E0,3.447892570E-1,-2.165270734E-1,3.318774354E-1,5.252677769E-1
3.170158958E0,2.579271144E-1,7.811704695E-2,-4.859577075E-2,2.738434193E-1
3.180221958E0,4.668533921E-2,2.892442167E-2,-8.103890061E-2,9.789507893E-2
3.190284958E0,2.293663895E-1,-3.731406516E-1,-3.830651307E-1,5.818778058E-1
3.200346958E0,-5.108545670E-1,-4.433709741E-2,-1.170911805E0,1.278269385E0
3.210409958E0,-9.490355524E-1,1.185025960E-1,-1.228801871E0,1.557133708E0
3.220472958E0,-1.356826512E0,2.012097073E-1,-1.191295345E0,1.816768595E0
3.230535958E0,-8.016099966E-1,6.425464350E-1,-5.656980877E-1,1.172799571E0
3.240598958E0,1.611919481E-1,1.442940795E-1,1.834764178E-1,2.836674486E-1
3.250660958E0,4.545894420E-1,-3.133967257E-1,3.166316977E-1,6.364940694E-1
3.260723958E0,3.632907245E-1,-3.600306094E-1,2.300994842E-1,5.608457567E-1
3.270786958E0,4.985511482E-2,-6.141032392E-1,2.869347127E-1,6.796615703E-1
3.280849958E0,-4.878852421E-1,-1.101479774E0,3.991685088E-1,1.269104093E0
3.290912958E0,-3.771921873E-1,-9.481803972E-1,-9.785753936E-3,1.020497806E0
3.300974958E0,-9.224049935E-1,-5.905611795E-1,-2.766200781E-2,1.095608810E0
3.311037958E0,-7.706162453E-1,-5.099046868E-1,1.056428146E-1,9.300605310E-1
3.321100958E0,-1.520217597E-1,-4.269666106E-1,-1.189042997E-1,4.685609186E-1
3.331163958E0,-1.371534598E-1,-5.728756911E-1,2.158683845E-1,6.273729261E-1
3.341225958E0,-1.740982148E-1,-6.609330046E-1,6.337260564E-1,9.320683127E-1
3.351288958E0,1.007615590E-1,-7.140584671E-1,6.798958173E-1,9.911058010E-1
3.361351958E0,2.754564822E-2,-2.247628766E-1,5.579904342E-1,6.021880421E-1
3.371414958E0,-3.018087137E-1,4.804528463E-1,2.388704538E-2,5.678855766E-1
3.381477958E0,3.042899796E-1,-2.424390095E-1,-3.876797533E-1,5.492400715E-1
3.391539958E0,2.004598019E-1,4.887886369E-1,-8.625721899E-1,1.011498515E0
3.401602958E0,1.428492326E-1,1.116553311E0,-1.009206033E0,1.511818116E0
3.411665958E0,-3.062180990E-1,6.510477018E-1,-8.307773700E-1,1.099010315E0
3.421728958E0,-6.991018742E-2,1.027942266E0,-6.588236216E-1,1.222947791E0
3.431790958E0,5.186948061E-2,2.786841452E-1,-4.178171799E-2,2.865327342E-1
3.441853958E0,1.013559870E0,4.855060101E-1,4.804857369E-1,1.222246390E0
3.451916958E0,6.411290699E-1,2.405456811E-1,1.264028860E0,1.437594403E0
3.461979958E0,5.556433618E-2,1.286866915E-1,1.150952042E0,1.159456020E0
3.472042958E0,-4.924612731E-2,5.247642159E-2,4.976749429E-1,5.028511755E-1
3.482104958E0,-9.529616654E-1,1.331270671E-1,7.671897769E-2,9.652691610E-1
3.492167958E0,-5.539652109E-1,7.756612229E-1,-1.826234552E-1,9.705045667E-1
3.502230958E0,-6.474390927E-1,4.489112109E-1,3.838504118E-1,8.763787952E-1
3.512293958E0,3.078456715E-1,-3.603697479E-2,8.120212564E-1,8.691640477E-1
3.522355958E0,1.679666783E0,-6.851521719E-1,1.571259989E0,2.399910822E0
3.532418958E0,3.791598923E0,-4.469658422E-1,1.130312394E0,3.981658821E0
3.542481958E0,1.788281153E0,-2.616085213E-1,-2.328814432E-1,1.822257464E0
3.552544958E0,-5.113249755E-1,2.059886366E-1,-6.931973559E-1,8.856676144E-1
3.562607958E0,-1.874055713E0,9.063242733E-2,-5.027678677E-1,1.942440368E0
3.572669958E0,-1.749924733E0,6.689214706E-2,3.775339571E-1,1.791436022E0
3.582732958E0,-2.891208404E-1,7.640954304E-1,1.012301549E0,1.300840925E0
3.592795958E0,1.801171924E-1,6.777308857E-1,1.288210898E0,1.466713562E0
3.602858958E0,2.303296160E0,1.011825585E0,1.129697559E0,2.757749225E0
3.612921958E0,2.765836207E0,1.018688462E0,1.002826720E-1,2.949174922E0
3.622983958E0,8.446859957E-1,6.924986136E-1,1.607998922E-1,1.104040473E0
3.633046958E0,-1.707572620E-1,6.077566713E-1,2.222447732E-1,6.692674751E-1
3.643109958E0,-2.357059407E-1,3.433262837E-1,5.406230342E-1,6.824247158E-1
3.653172958E0,2.368331377E-1,3.878341198E-2,8.917965737E-1,9.235232629E-1
3.663234958E0,1.034418496E0,-4.305889606E-2,9.025250450E-1,1.373472661E0
3.673297958E0,7.014295046E-1,-3.098486352E-1,5.105943659E-1,9.212579080E-1
3.683360958E0,-5.128449592E-1,5.212149560E-2,3.249128169E-1,6.093397583E-1
3.693423958E0,-1.453256453E0,9.805611080E-1,2.717186496E-1,1.774059027E0
3.703486958E0,-8.067078915E-1,9.109839195E-1,1.511166108E-1,1.226175173E0
3.713548958E0,-9.244769543E-2,4.246306479E-1,5.797882694E-1,7.245772567E-1
3.723611958E0,8.331168410E-1,4.447421461E-1,2.278782731E-1,9.714976864E-1
3.733674958E0,1.090984314E0,6.131495583E-1,-1.008223701E-1,1.255533474E0
3.743737958E0,8.359251125E-1,4.851662868E-1,2.377390176E-2,9.668103837E-1
3.753800958E0,-1.380505688E-1,-9.866767108E-2,4.813360682E-1,5.103701396E-1
3.763862958E0,-5.987426037E-1,-3.736692399E-1,1.243840764E0,1.430126306E0
3.773925958E0,-5.310110157E-1,-5.691738188E-1,1.662394400E0,1.835616157E0
3.783988958E0,5.378820788E-1,1.867033499E-1,9.476889387E-1,1.105572067E0
3.794051958E0,4.276939311E-1,1.322090542E-1,4.612263241E-1,6.427527167E-1
3.804113958E0,9.604125530E-1,6.652956122E-1,-3.168012670E-1,1.210526153E0
3.814176958E0,8.263879383E-1,8.066707617E-1,-2.464195016E-1,1.180829079E0
3.824240708E0,-2.725533396E-4,3.296332741E-1,9.907200605E-2,3.441996979E-1
3.834303708E0,-7.942311028E-1,1.907969856E-1,4.986341786E-1,9.569966449E-1
3.844366708E0,-7.952749038E-1,4.415472275E-1,4.086507922E-1,9.972068977E-1
3.854428708E0,-5.542289203E-1,5.711302972E-1,4.036216021E-2,7.968617298E-1
3.864491708E0,-2.423142446E-1,4.851060605E-1,-3.553396806E-1,6.483134826E-1
3.874554708E0,6.186588049E-2,6.138266659E-1,-5.384092784E-1,8.188376603E-1
3.884617708E0,3.087939437E-1,1.976054835E-1,-2.539428216E-1,4.459692629E-1
3.894680708E0,5.713779268E-1,-6.424277365E-2,-2.094823480E-1,6.119499353E-1
3.904742708E0,6.282093546E-1,4.498976362E-1,-3.388905859E-1,8.437426773E-1
3.914805708E0,1.051001053E0,4.242727983E-1,-3.266932940E-1,1.179550393E0
3.924868708E0,9.551018925E-1,-5.361423129E-1,-4.636625665E-1,1.189391096E0
3.934931708E0,1.468350456E0,2.732105666E-1,-5.161077055E-1,1.580210188E0
3.944993708E0,1.407330229E0,-5.991407990E-1,-4.307941979E-1,1.589066302E0
3.955056708E0,1.209825975E0,-1.006123965E0,-5.593852875E-1,1.669992881E0
3.965119708E0,2.462983181E-1,-7.961709166E-1,-9.015555766E-1,1.227743234E0
3.975182708E0,-1.209797397E0,-4.955515265E-1,-4.926825902E-1,1.397110301E0
3.985245708E0,-1.555800244E0,-4.750599593E-1,-2.456061539E-1,1.645150068E0
3.995307708E0,-1.476188795E0,-8.709532964E-1,-5.847011000E-2,1.714966984E0
4.005370708E0,-1.326673298E0,-9.432126027E-1,2.322362030E-1,1.644276651E0
4.015433708E0,-1.176945254E0,-7.885239279E-1,8.940480441E-2,1.419494042E0
4.025496708E0,-9.025088190E-1,-9.708114606E-1,3.012926969E-1,1.359328639E0
4.035559708E0,-5.043293667E-1,-6.167420876E-1,-1.111473835E-1,8.044082630E-1
4.045621708E0,-2.960807812E-1,-7.438693267E-1,-1.067467690E-2,8.006992900E-1
4.055684708E0,2.414060989E-1,-8.355548376E-1,2.603414297E-2,8.701187090E-1
4.065747708E0,1.445209515E-1,-4.703909576E-1,4.047021675E-1,6.371324845E-1
4.075810708E0,7.765687108E-3,4.440960288E-3,5.987566370E-1,5.988234618E-1
4.085872708E0,3.548509996E-1,2.475506455E-1,6.214423719E-1,7.572259739E-1
4.095935708E0,2.924569693E-1,-3.135019755E-1,6.864069843E-1,8.093016222E-1
4.105998708E0,-2.657720312E-1,-2.594731182E-1,1.644195526E0,1.685627480E0
4.116061708E0,-6.780084823E-1,8.006159699E-1,1.995981269E0,2.254910788E0
4.126124708E0,-6.652098043E-1,-3.140422583E-1,1.238959800E0,1.440884454E0
4.136186708E0,-7.277845135E-1,-1.525521022E-1,1.519291983E0,1.691505416E0
4.146249708E0,-8.135146353E-1,5.358435202E-1,1.243480575E0,1.579613333E0
4.156312708E0,-4.327559388E-1,6.934499556E-1,-4.328109026E-3,8.174162195E-1
4.166375708E0,-4.476761328E-1,6.542391121E-1,2.276534477E-1,8.247841099E-1
4.176438708E0,-6.084214997E-1,7.980806172E-2,3.170854416E-1,6.907164580E-1
4.186500708E0,-7.985931987E-1,-8.706439787E-1,6.669652846E-1,1.356692569E0
4.196563708E0,-3.989817633E-1,-1.296603699E0,7.239770991E-1,1.537696472E0
4.206626708E0,-4.060571136E-1,-1.321473661E0,2.959565279E-1,1.413776957E0
4.216689708E0,-2.212829062E-1,-5.281672955E-2,-1.007207454E0,1.032580548E0
4.226751708E0,-9.109961987E-4,1.102144602E0,-2.004280515E0,2.287326810E0
4.236814708E0,-8.618290088E-1,4.135852575E-1,-1.515025270E0,1.791397101E0
4.246877708E0,-1.116032470E0,6.719661158E-1,-8.143431857E-1,1.536301324E0
4.256940708E0,-8.745225830E-1,9.692578554E-2,-2.743785480E-1,9.216658525E-1
4.267003708E0,-5.394983223E-1,-5.395225883E-1,8.841855454E-1,1.167872913E0
4.277065708E0,-2.494312562E-1,-7.431945580E-1,1.556938404E0,1.743161294E0
4.287128708E0,2.437110713E-1,-3.137323558E-1,9.823029935E-1,1.059595323E0
4.297191708E0,5.108305934E-1,7.291191405E-1,3.054842734E-1,9.412137151E-1
4.307254708E0,7.963695757E-1,1.026019117E0,5.496879727E-2,1.299977422E0
4.317317708E0,6.343214491E-1,5.527384651E-1,2.203242552E-1,8.697277097E-1
4.327379708E0,-6.837733984E-3,5.833474696E-1,-3.754848003E-2,5.845946572E-1
4.337442708E0,-7.674800912E-1,1.155878175E0,-1.651990449E-1,1.397272618E0
4.347505708E0,-9.732579356E-1,7.088404119E-1,-1.287252831E-1,1.210890555E0
4.357568708E0,-1.000081014E0,1.524819941E0,-4.127219161E-1,1.869646295E0
4.367631708E0,-7.530801532E-1,1.793352150E0,-3.019563559E-1,1.968354463E0
4.377693708E0,-4.046428183E-1,1.008237149E0,7.064228806E-1,1.295882420E0
4.387756708E0,1.340152591E-2,4.823789191E-1,1.020129509E0,1.128509299E0
4.397819708E0,4.389080867E-1,1.419663030E-1,2.306654216E0,2.352328296E0
4.407882708E0,1.160058642E0,2.027077639E-1,3.116521504E0,3.331596130E0
4.417944708E0,1.281196285E0,4.147003216E-1,1.814573596E0,2.259672015E0
4.428007708E0,1.597782083E0,-1.492817545E-1,3.810283993E-1,1.649356016E0
4.438070708E0,2.207256666E0,-1.309261751E-1,-2.900812456E-1,2.230083133E0
4.448133708E0,1.911110688E0,-1.186084306E-1,-8.273415461E-1,2.085882560E0
4.458196708E0,1.328278651E0,6.149434841E-1,-7.915305662E-1,1.664031340E0
4.468258708E0,1.529263240E-1,5.260108423E-1,-1.653765079E-1,5.722091018E-1
4.478321708E0,-1.125061594E0,3.473035598E-1,-4.670141906E-2,1.178373615E0
4.488384708E0,-8.782859972E-1,7.640837359E-1,3.910550585E-1,1.228061198E0
4.498447708E0,-1.861502033E-1,2.727077061E-1,7.612237166E-1,8.297487197E-1
4.508510708E0,1.135063257E0,2.434593487E-1,1.054960495E0,1.568624460E0
4.518572708E0,2.056981469E0,-3.043230164E-1,1.581850759E0,2.612668576E0
4.528635708E0,2.515913638E0,-5.126774365E-1,1.738319180E0,3.100711718E0
4.538698708E0,1.399034345E0,-3.804414850E-1,9.870219889E-1,1.753922812E0
4.548761708E0,-1.858400086E-1,2.591971296E-1,2.324608822E-1,3.946615291E-1
4.558824708E0,-2.479707679E-1,4.008675635E-1,2.368242207E-1,5.275130489E-1
4.568886708E0,4.155633706E-1,2.506713045E-1,6.784176412E-1,8.341339903E-1
4.578949708E0,1.182727712E0,1.497162026E-1,6.341377003E-1,1.350329739E0
4.589012708E0,2.023913711E0,2.220924532E-1,5.196455634E-1,2.101328931E0
4.599075708E0,2.617573915E0,4.432721561E-1,4.231119798E-1,2.688346546E0
4.609138708E0,2.399333315E0,6.359531146E-1,3.916438732E-1,2.512891092E0
4.619200708E0,1.765383748E0,9.871456575E-1,-3.131885648E-2,2.022873501E0
4.629263708E0,7.369260505E-1,1.374556439E0,-5.761255735E-1,1.662644305E0
4.639326708E0,-4.894251063E-1,9.450714326E-1,-3.245760173E-2,1.064777180E0
4.649389708E0,-2.739315283E-1,8.189668715E-1,5.550754510E-1,1.026573901E0
4.659451708E0,4.541441765E-1,4.494421381E-1,1.792353007E0,1.902833275E0
4.669514708E0,5.642589417E-1,-1.112140417E-1,1.914359694E0,1.998882126E0
4.679577708E0,-5.158442885E-2,-5.257909870E-1,1.041547860E0,1.167878016E0
4.689640708E0,-5.499806258E-1,2.903896862E-1,4.876741576E-1,7.903359682E-1
4.699703708E0,-1.135804684E0,3.378842801E-1,-3.436510965E-1,1.233820952E0
4.709765708E0,-1.636656419E0,6.409717798E-2,-7.727539873E-1,1.811049808E0
4.719828708E0,-1.383942974E0,1.700428784E-1,-7.522744069E-1,1.584338827E0
4.729891708E0,-1.359895715E0,-6.510523796E-2,-3.833738637E-1,1.414401134E0
4.739954708E0,-1.662030119E0,-5.354681289E-1,-6.408837792E-1,1.860054368E0
4.750017708E0,-6.142169675E-1,-9.088040775E-1,-8.487160429E-1,1.386905280E0
4.760079708E0,-1.477620631E-1,-1.074946278E0,-5.270487231E-1,1.206284993E0
4.770142708E0,-1.140888253E-1,-1.485952329E0,6.970144182E-2,1.491954716E0
4.780205708E0,-6.053359240E-2,-1.638137811E0,4.237038642E-1,1.693128692E0
4.790268708E0,-8.637208754E-1,-8.907613242E-1,5.175490442E-1,1.344368439E0
4.800330708E0,-1.165532513E0,-1.089365512E-1,8.044216302E-1,1.420361704E0
4.810393708E0,-8.707381189E-2,1.306022394E-1,3.867819133E-1,4.174195038E-1
4.820456667E0,1.026775162E0,1.514048785E-1,-7.928590536E-2,1.040901976E0
4.830519667E0,2.402257215E0,3.656322420E-1,-5.796347800E-1,2.498099906E0
4.840582667E0,2.516551570E0,8.285644913E-1,-4.186009991E-1,2.682308281E0
4.850644667E0,1.629466390E0,6.766433036E-1,9.240916228E-1,1.991720915E0
4.860707667E0,9.829029179E-1,6.197288454E-2,1.578609940E0,1.860631109E0
4.870770667E0,5.529390246E-1,-2.906282526E-1,1.226549670E0,1.376455753E0
4.880833667E0,-8.325663257E-1,-5.228568542E-1,2.304680049E-1,1.009782887E0
4.890895667E0,-2.067042481E0,-6.055534405E-1,-8.259309053E-1,2.306842311E0
4.900958667E0,-2.312167117E0,-6.691693926E-1,-5.470669582E-1,2.468438111E0
4.911021667E0,-1.886296274E0,-4.805487406E-1,-9.836770892E-2,1.949029741E0
4.921084667E0,-8.230596301E-1,2.513805717E-1,1.772086412E-2,8.607748693E-1
4.931147667E0,-2.154868537E-1,4.522148877E-1,-2.273797980E-1,5.501222240E-1
4.941209667E0,1.596786886E-2,3.353191066E-1,-5.964718375E-1,6.844505307E-1
4.951272667E0,-1.960059777E-1,7.610817754E-1,2.123892912E-1,8.141087294E-1
4.961335667E0,9.183841556E-2,6.044915861E-1,-4.929059538E-1,7.853665714E-1
4.971398667E0,-6.083013394E-1,-1.273201388E0,-3.751178876E-1,1.460063602E0
4.981461667E0,-8.539399454E-1,-1.241104267E0,4.343946210E-1,1.567881347E0
4.991523667E0,-4.765524611E-1,-3.828517073E-1,-3.239866179E-1,6.918417497E-1
5.001586667E0,-8.210233372E-1,-2.949926144E-1,-4.991560426E-1,1.005115276E0
5.011649667E0,-1.252047623E0,-4.098401159E-1,-7.791599044E-1,1.530582349E0
5.021712667E0,-8.208730638E-1,4.320764923E-1,-1.182995807E0,1.503330224E0
5.031774667E0,-6.697079211E-1,7.114447618E-1,-7.248135433E-1,1.216559502E0
5.041837667E0,-1.019724004E0,3.017350388E-1,1.758783996E-1,1.077874895E0
5.051900667E0,-6.880857199E-1,-9.579727292E-2,7.865870377E-1,1.049456166E0
5.061963667E0,-8.097323638E-1,-4.418349105E-1,1.113557490E0,1.445992694E0
5.072026667E0,-1.412351671E0,-9.206394267E-1,9.175544357E-1,1.919432296E0
5.082088667E0,-1.356841130E0,-8.670181203E-1,5.689998642E-1,1.707776074E0
5.092151667E0,-1.101631216E0,-4.665247786E-1,-4.185178225E-1,1.267435945E0
5.102214667E0,-4.649407679E-1,4.723836887E-1,-1.230867254E0,1.397980852E0
5.112277667E0,1.123538979E0,1.240317816E0,-6.918729615E-1,1.810915878E0
5.122340667E0,2.835590858E0,8.095405751E-1,1.352998924E0,3.244462598E0
5.132402667E0,3.465882114E0,-7.416310126E-1,2.981088295E0,4.631332725E0
5.142465667E0,3.196210282E0,-1.300390940E0,2.821035969E0,4.457019263E0
5.152528667E0,6.769181228E-1,8.982527769E-1,1.033233557E0,1.527300815E0
5.162591667E0,-2.310399211E0,2.351270664E-1,-3.204275639E-1,2.344334250E0
5.172653667E0,-2.320599679E0,5.668571520E-1,-3.121512687E-1,2.409138500E0
5.182716667E0,-2.355375409E-2,4.569096172E-1,8.659960270E-2,4.656400636E-1
5.192779667E0,7.510742658E-1,4.737764955E-2,1.542635822E-1,7.682151048E-1
5.202842667E0,1.463996619E-1,2.296885711E-1,1.920048742E-1,3.332500149E-1
5.212905667E0,1.493729711E-2,6.425657308E-1,9.435817082E-1,1.141691850E0
5.222967667E0,2.243886548E-1,2.630586308E-1,9.661610238E-1,1.026166281E0
5.233030667E0,-1.746919996E-1,5.912762940E-2,5.896825623E-1,6.178502209E-1
5.243093667E0,-5.530390120E-1,-9.991195858E-2,4.762922600E-2,5.640062866E-1
5.253156667E0,1.488625091E-1,-2.638357258E-1,1.604015507E-2,3.033589020E-1
5.263218667E0,3.345016658E-1,2.460929346E-1,-4.706808333E-1,6.276890502E-1
5.273281667E0,-1.014829885E0,4.556641603E-1,-1.055800082E0,1.533695972E0
5.283344667E0,-1.300009702E0,6.397707617E-1,-1.197706232E0,1.879848949E0
5.293407667E0,-2.167538869E0,1.610960537E-1,-4.147525080E-1,2.212735034E0
5.303470667E0,-2.499708957E0,-1.850028627E0,-4.953878045E-1,3.149056981E0
5.313532667E0,1.137720524E0,-5.526010555E-1,3.008877772E0,3.263911972E0
5.323595667E0,4.251813387E0,3.078980041E-1,2.717539083E0,5.055466044E0
5.333658667E0,4.049171989E0,-1.054716082E0,5.047948050E-1,4.214621881E0
5.343721667E0,2.179386497E0,2.280835104E-1,-2.204868078E-1,2.202353746E0
5.353783667E0,1.692374829E0,-3.720676875E-1,-2.850632382E-1,1.756083135E0
5.363846667E0,6.539777416E-1,-3.592318797E-1,-2.076685417E-1,7.745067160E-1
5.373909667E0,1.071256101E0,-2.748992425E-1,4.716296902E-1,1.202328487E0
5.383972667E0,9.611340263E-1,-2.911252660E-1,5.338227224E-1,1.137321079E0
5.394035667E0,-1.511622190E-2,-2.737642980E-1,4.933903956E-1,5.644550235E-1
5.404097667E0,-2.018300968E-1,-7.038328564E-1,6.039859481E-1,9.491654773E-1
5.414160667E0,-3.195108667E-1,-3.018812191E-1,6.618789379E-1,7.945459036E-1
5.424223667E0,3.383181435E-1,-2.310305071E-1,8.936252904E-1,9.830566723E-1
5.434286667E0,1.194844897E0,-2.919152248E-1,9.981536988E-1,1.584039025E0
5.444349667E0,1.141147285E0,-7.760383683E-1,7.457901371E-1,1.568647699E0
5.454411667E0,7.164844769E-1,1.476749396E-1,1.297473764E-1,7.429618262E-1
5.464474667E0,2.674566141E-1,1.076183549E0,-2.855546236E-1,1.145096291E0
5.474537667E0,-2.046984485E-1,5.907459515E-1,-6.164829098E-2,6.282378099E-1
5.484600667E0,-5.297574458E-1,3.064993501E-2,4.732268572E-2,5.327492904E-1
5.494662667E0,-1.971365368E-1,-3.163916695E-1,3.916245773E-2,3.748335641E-1
5.504725667E0,-1.880534720E-1,-9.431681639E-1,1.738157943E-2,9.618900213E-1
5.514788667E0,-9.530961514E-5,-7.097584248E-1,-2.896125913E-1,7.665719038E-1
5.524851667E0,7.868454847E-1,8.466943681E-2,-1.747286908E-1,8.104473121E-1
5.534914667E0,1.086838930E0,8.576929808E-2,5.171920717E-1,1.206674302E0
5.544976667E0,1.038828612E0,-1.972780395E-1,9.845388226E-1,1.444783791E0
5.555039667E0,3.078117576E-1,-4.268753940E-1,6.654132874E-1,8.483781723E-1
5.565102667E0,-3.169959792E-1,-2.433681321E-1,-5.582838182E-1,6.865823478E-1
5.575165667E0,-2.101714423E-1,4.119228941E-1,-1.111222258E0,1.203606004E0
5.585227667E0,-6.884152105E-1,4.525739068E-1,-5.712729692E-3,8.238757664E-1
5.595290667E0,-1.720232134E0,-1.159877086E-1,7.476365416E-1,1.879258402E0
5.605353667E0,-2.125189825E0,-1.073096804E0,6.607352225E-1,2.470736646E0
5.615416667E0,-1.266942528E0,-2.032745345E0,1.241749945E0,2.697988127E0
5.625479667E0,2.806444243E-1,-2.377233471E0,1.679966160E0,2.924429272E0
5.635541667E0,1.139151630E0,-1.925336087E0,1.082327803E0,2.485159745E0
5.645604667E0,1.904471175E0,-1.136772398E0,5.399586444E-1,2.282721463E0
5.655667667E0,2.240461249E0,9.570611483E-1,-3.674178354E-1,2.463864549E0
5.665730667E0,5.817581964E-1,1.908206084E0,-1.161214929E0,2.308270601E0
5.675792667E0,-3.435046238E-1,2.233772619E0,-1.245315431E0,2.580415871E0
5.685855667E0,-5.735598153E-1,2.160750836E0,-7.494725673E-1,2.357864323E0
5.695918667E0,-7.292939723E-1,1.685312562E0,-2.308806722E-1,1.850798210E0
5.705981667E0,-5.849735802E-1,1.294730251E0,4.063136601E-1,1.477704741E0
5.716043667E0,-4.213503599E-3,9.821492118E-1,1.291466189E0,1.622504159E0
5.726106667E0,9.411418113E-1,9.360000622E-1,1.848714319E0,2.275870967E0
5.736169667E0,1.500825745E0,2.318824464E-1,1.761343030E0,2.325634678E0
5.746232667E0,1.492949400E0,-1.201495813E0,1.028398933E0,2.174878034E0
5.756295667E0,1.016524700E0,-5.579752314E-1,3.968269913E-1,1.225614330E0
5.766357667E0,1.180221449E0,-3.112127906E-1,-1.240215636E0,1.740089335E0
5.776420667E0,1.535458950E0,-8.566732264E-1,-8.017713797E-1,1.932449365E0
5.786483667E0,1.057444392E0,-6.259613925E-1,-7.941454411E-2,1.231390668E0
5.796546667E0,-5.315835312E-2,-1.171993101E0,1.024162187E0,1.557338058E0
5.806608667E0,-1.829483704E0,-1.243042619E0,5.411865596E-1,2.277070150E0
5.816671667E0,-1.888390016E0,-2.431091005E-1,-7.806953833E-2,1.905574386E0
5.826733917E0,-2.082005652E0,1.158545090E0,-6.973797230E-1,2.482602010E0
5.836796917E0,-2.014886779E0,1.974669630E0,-8.034002678E-1,2.933349770E0
5.846859917E0,-1.207711695E0,2.070516019E0,-1.276412094E-1,2.400395052E0
5.856921917E0,-9.727666233E-1,1.276964071E0,2.847279735E-1,1.630331917E0
5.866984917E0,-7.388060765E-1,-4.396462977E-1,7.433813766E-2,8.629307298E-1
5.877047917E0,-2.493182588E-1,-5.930643725E-1,-5.278889680E-1,8.321969158E-1
5.887110917E0,-7.003254041E-2,-3.338701665E-1,-1.017799978E-1,3.559958044E-1
5.897172917E0,3.664730716E-1,-3.398670709E-1,5.421444798E-1,7.373823805E-1
5.907235917E0,5.927306427E-1,2.901593059E-1,5.494349344E-1,8.587204346E-1
5.917298917E0,4.663850302E-1,9.774533129E-1,8.840042818E-1,1.397996261E0
5.927361917E0,4.976810825E-1,3.931194180E-1,6.791684237E-1,9.292465144E-1
5.937424917E0,-7.529108763E-2,1.729202932E-1,4.904556781E-2,1.948734035E-1
5.947486917E0,8.400270805E-2,4.906831348E-1,3.952118441E-2,4.993879431E-1
5.957549917E0,-3.895230880E-1,-1.370797849E-1,-2.149214280E-1,4.655215610E-1
5.967612917E0,-4.630641040E-1,-7.130960155E-1,1.163245082E-1,8.581757879E-1
5.977675917E0,-3.797309022E-1,-7.816417551E-1,4.200872152E-1,9.652111995E-1
5.987737917E0,-5.967785239E-1,-4.527487385E-1,1.774384367E-1,7.698119418E-1
5.997800917E0,-6.796679221E-1,-3.608942431E-1,6.516385630E-2,7.722949354E-1
6.007863917E0,-2.356654488E-1,-6.032040292E-1,-2.052226514E-3,6.476090767E-1
6.017926917E0,2.715695456E-2,-7.486605352E-1,1.017124625E-1,7.560261386E-1
6.027989917E0,2.713359493E-1,-9.958252645E-1,2.057401299E-1,1.052435345E0
6.038051917E0,2.485196753E-1,-1.038415214E0,5.263536353E-1,1.190426955E0
6.048114917E0,-3.258071485E-1,-6.852492356E-1,8.066608214E-1,1.107437806E0
6.058177917E0,-8.569658795E-1,-6.599764001E-1,1.248053098E-1,1.088823095E0
6.068240917E0,-7.954898621E-1,-8.940182233E-1,-1.638797669E-1,1.207861450E0
6.078302917E0,-5.158431190E-1,-6.146534622E-1,-1.198667514E-1,8.113328787E-1
6.088365917E0,3.926729831E-1,5.916616255E-1,-9.883899450E-2,7.169551573E-1
6.098428917E0,1.219376306E0,1.492132251E0,3.393468149E-1,1.956653646E0
6.108491917E0,1.053443435E0,1.177515796E0,7.492015488E-1,1.748596432E0
6.118553917E0,8.636770213E-1,2.906732762E-1,8.549706633E-1,1.249561437E0
6.128616917E0,1.070864922E0,5.394167536E-1,1.356917582E0,1.810786415E0
6.138679917E0,8.544027525E-1,1.352701301E0,1.255560923E0,2.033774349E0
6.148742917E0,4.671213408E-1,1.652920157E0,7.659093098E-1,1.880681914E0
6.158805917E0,3.011047089E-1,1.367081358E0,3.633895424E-1,1.446245984E0
6.168867917E0,1.295884784E-1,3.791843337E-1,-5.485984171E-1,6.793630516E-1
6.178930917E0,-6.346436307E-2,-5.554778856E-1,-7.425682481E-1,9.295111672E-1
6.188993917E0,-6.348921373E-2,-3.928410906E-1,-2.556260157E-1,4.729689869E-1
6.199056917E0,-2.265869156E-1,-1.188364720E-1,-3.879310374E-1,4.647087552E-1
6.209118917E0,-5.506397532E-1,8.638208628E-2,-4.660462571E-1,7.265432653E-1
6.219181917E0,-6.996554594E-1,3.144047856E-1,-5.724715754E-1,9.571268650E-1
6.229244917E0,-5.672103238E-1,2.978969264E-1,-3.789463520E-1,7.443590988E-1
6.239307917E0,-3.186175583E-1,-1.905514026E-1,1.756328896E-1,4.106992786E-1
6.249369917E0,8.759713769E-3,-5.379958802E-1,6.696816087E-1,8.590633019E-1
6.259432917E0,6.793602124E-2,-2.825509089E-1,6.471441738E-1,7.093982667E-1
6.269495917E0,3.598513922E-1,1.250052845E-1,4.406976271E-1,5.825235996E-1
6.279558917E0,-8.871775657E-2,3.285398448E-1,3.121335809E-1,4.617755323E-1
6.289621917E0,-2.540898791E-1,2.592374754E-1,2.960630934E-1,4.684219151E-1
6.299683917E0,2.394665775E-1,9.570254803E-2,3.789251558E-1,4.583530224E-1
6.309746917E0,3.816933739E-1,4.943119168E-2,2.800382142E-1,4.759776001E-1
6.319809917E0,1.882803440E-3,4.054459333E-3,3.611145370E-1,3.611422052E-1
6.329872917E0,-2.640107037E-1,1.826746184E-1,3.977032696E-1,5.111159932E-1
6.339934917E0,-6.473079689E-1,2.349060416E-1,4.939449310E-1,8.474491429E-1
6.349997917E0,-6.395675710E-1,-2.897792369E-1,9.232636571E-2,7.081968948E-1
6.360060917E0,-7.724215731E-2,-7.829123551E-1,-5.902633370E-1,9.835288067E-1
6.370123917E0,5.020245405E-1,-1.092371566E0,-5.012419637E-1,1.302515943E0
6.380186917E0,4.559673384E-1,-1.794267824E0,-4.569729133E-1,1.906863257E0
6.390248917E0,2.429278368E-1,-2.164031124E0,3.510048473E-1,2.205730954E0
6.400311917E0,2.319572908E-1,-2.128469528E0,9.599606363E-1,2.346425183E0
6.410374917E0,-8.715830415E-2,-2.084442918E0,7.235613620E-1,2.208175693E0
6.420437917E0,-1.827887852E-1,-2.526339224E0,6.250580708E-1,2.608926830E0
6.430499917E0,-6.585572809E-2,-3.366384723E0,6.838319436E-1,3.435769085E0
6.440562917E0,-3.004463124E-1,-3.622787468E0,7.398764093E-1,3.709753918E0
6.450625917E0,-5.535129288E-1,-2.935674140E0,1.103776633E0,3.184789173E0
6.460688917E0,-6.341203049E-1,-1.800153047E0,1.111862090E0,2.208822505E0
6.470750917E0,-4.759089750E-1,-8.756790161E-1,6.664714873E-1,1.198952599E0
6.480813917E0,5.446096659E-3,-3.617268866E-1,-1.286573824E-1,3.839644808E-1
6.490876917E0,4.012476325E-1,7.790713191E-2,-5.517841995E-1,6.866840515E-1
6.500939917E0,8.927397296E-1,3.584729111E-1,-4.566581869E-1,1.064905513E0
6.511002917E0,1.216196590E0,6.985019499E-1,-1.045645881E-1,1.406404235E0
6.521064917E0,6.947971541E-1,1.969951512E0,-8.007761836E-2,2.090422079E0
6.531127917E0,8.238735625E-1,3.687168236E0,-4.177110529E-1,3.801112965E0
6.541190917E0,1.423422790E0,5.170881082E0,-3.697977984E-1,5.375955172E0
6.551253917E0,7.726610166E-1,6.647217080E0,-7.592001414E-1,6.734900505E0
6.561315917E0,-1.798913437E-1,6.816368258E0,-6.976657981E-1,6.854339843E0
6.571378917E0,-5.478037074E-1,3.113556966E0,3.730237073E-1,3.183311572E0
6.581441917E0,-8.536145478E-2,5.822978944E-1,1.265694732E0,1.395829707E0
6.591504917E0,1.110207912E-1,3.924312007E-1,1.024867215E0,1.103032489E0
6.601566917E0,-4.089250267E-3,2.908036691E-1,7.672201824E-1,8.204939392E-1
6.611629917E0,4.192146644E-1,2.180660605E-1,5.564140248E-1,7.299933620E-1
6.621692917E0,8.810347733E-1,6.659920156E-2,1.273734069E-1,8.926823120E-1
6.631755917E0,1.215193792E0,-9.476406991E-2,-1.841288209E-2,1.219022238E0
6.641818917E0,8.121156889E-1,2.561255872E-1,7.533201357E-2,8.548725758E-1
6.651880917E0,8.700858620E-1,2.085848004E-1,-2.826544503E-2,8.951848756E-1
6.661943917E0,8.437748533E-1,3.271926463E-2,-3.433485031E-1,9.115452529E-1
6.672006917E0,5.769102699E-1,-3.912781298E-2,-3.266786760E-1,6.641350786E-1
6.682069917E0,-5.379350692E-2,-4.055336416E-1,-8.311676717E-1,9.263859748E-1
6.692131917E0,-4.612590685E-1,-4.519663811E-2,-9.467846668E-1,1.054136552E0
6.702194917E0,-6.794359338E-1,6.483784479E-1,-5.914078563E-1,1.109860826E0
6.712257917E0,-6.454715046E-1,4.735683346E-1,-6.950579399E-1,1.060191478E0
6.722320917E0,-5.454165816E-2,1.783020705E-1,-1.044532571E0,1.061044161E0
6.732382917E0,1.125957388E-1,4.310485518E-1,-5.070460196E-1,6.749639401E-1
6.742445917E0,2.796998066E-1,3.659474069E-1,-8.012316817E-1,9.241870450E-1
6.752508917E0,3.981968477E-1,4.044384581E-1,-1.013261077E0,1.161391065E0
6.762571917E0,3.734487998E-1,5.956090808E-1,-8.722233117E-1,1.120262330E0
6.772634917E0,3.184911123E-1,2.105898106E-1,-4.788811147E-1,6.124636960E-1
6.782696917E0,7.304853424E-1,-4.840371895E-1,-9.344720386E-2,8.812679594E-1
6.792759917E0,9.622020203E-1,-8.424130368E-1,-3.559299570E-1,1.327470748E0
6.802822917E0,7.461409700E-1,-7.586481643E-1,-1.727383717E-1,1.078012954E0
6.812885917E0,4.177373654E-1,-6.072041094E-1,1.307425725E-1,7.485285280E-1
6.822948542E0,-1.364978407E-1,-4.140290612E-1,-2.117675129E-1,4.846619477E-1
6.833011542E0,-8.985932310E-1,-7.337261617E-2,-6.420512489E-1,1.106834740E0
6.843074542E0,-1.213272105E0,-3.079728484E-2,-9.027774254E-1,1.512608592E0
6.853137542E0,-1.063547424E0,-1.267185187E-1,-7.955768394E-1,1.334216329E0
6.863200542E0,-4.924796918E-1,8.469750345E-2,-6.497566366E-1,8.196911618E-1
6.873262542E0,-1.938699898E-1,1.183388740E-1,-1.037857389E-1,2.497221289E-1
6.883325542E0,8.425633103E-2,-6.200796783E-2,6.396391263E-1,6.481375851E-1
6.893388542E0,4.754119617E-1,-4.619850004E-1,7.670640618E-1,1.013821458E0
6.903451542E0,5.848661377E-1,-9.135870999E-1,4.069509336E-1,1.158584848E0
6.913513542E0,2.123173705E-1,-9.789396751E-1,1.986299157E-3,1.001701302E0
6.923576542E0,-5.240888625E-2,-9.634492314E-1,-4.303433776E-2,9.658328360E-1
6.933639542E0,-1.128307968E-1,-9.219714224E-1,1.712176571E-1,9.444985858E-1
6.943702542E0,-2.044107655E-1,-1.040115584E0,-1.225646567E-1,1.067073702E0
6.953764542E0,-1.496726409E-1,-1.093773143E0,-3.281048119E-1,1.151691954E0
6.963827542E0,-4.467405783E-1,-1.105144808E0,3.108835193E-1,1.231897217E0
6.973890542E0,-7.542659685E-1,-7.218773639E-1,3.120887035E-1,1.089689607E0
6.983953542E0,-8.608952084E-1,-2.645701361E-1,3.793849663E-1,9.772772736E-1
6.994016542E0,-4.860518476E-1,-2.070352882E-1,8.116666228E-1,9.684589385E-1
7.004078542E0,-2.264053595E-1,-2.079649955E-1,7.520354750E-1,8.124445715E-1
7.014141542E0,-2.565652978E-1,-2.729246378E-1,5.921065986E-1,7.006452983E-1
7.024204542E0,-1.656846562E-1,-1.628589892E-1,3.295251006E-1,4.031888485E-1
7.034267542E0,-3.508329391E-3,4.501315248E-1,-1.114771664E-1,4.637433090E-1
7.044329542E0,-2.108153670E-1,5.245063537E-1,1.780394574E-1,5.926618618E-1
7.054392542E0,-6.961215484E-1,2.390224814E-2,2.647572470E-1,7.451529557E-1
7.064455542E0,-8.942895341E-1,-6.085723579E-1,2.064113903E-1,1.101235555E0
7.074518542E0,-5.674455281E-1,-6.839985162E-1,5.356857184E-1,1.037693397E0
7.084580542E0,-1.291788809E-1,-4.405075926E-1,9.341891064E-1,1.040885877E0
7.094643542E0,6.167438418E-2,-1.094791728E-1,9.552368170E-1,9.634660324E-1
7.104706542E0,1.491529696E-1,7.308434844E-2,5.487845048E-1,5.733693077E-1
7.114769542E0,7.873889834E-2,7.893741131E-3,5.489202332E-1,5.545949402E-1
7.124832542E0,-4.805227205E-2,-1.096469879E-1,8.416295830E-1,8.501010751E-1
7.134894542E0,-3.717985694E-1,2.305264771E-1,5.091976853E-1,6.713113403E-1
7.144957542E0,-9.125974587E-1,6.381300330E-1,3.603182924E-1,1.170415880E0
7.155020542E0,-7.081991185E-1,8.202900964E-1,8.040373220E-1,1.349406480E0
7.165083542E0,1.316475753E-1,7.889993066E-1,1.079208241E0,1.343332206E0
7.175145542E0,3.167669146E-1,6.885242611E-1,1.059746368E0,1.302869641E0
7.185208542E0,3.011574800E-1,3.560135722E-1,9.992191346E-1,1.102669656E0
7.195271542E0,2.574938357E-1,-9.037573457E-2,7.322678661E-1,7.814646995E-1
7.205334542E0,8.516835049E-2,-3.210442990E-1,5.270375403E-1,6.229700304E-1
7.215396542E0,5.880536011E-1,-4.467073953E-1,2.633948457E-1,7.840480722E-1
7.225459542E0,6.782264373E-1,-2.492135936E-1,1.538648021E-1,7.387644366E-1
7.235522542E0,3.084863801E-1,2.585995442E-1,1.503843932E-1,4.297127374E-1
7.245585542E0,6.250562435E-1,6.473668796E-1,4.527849913E-1,1.007369561E0
7.255648542E0,6.615773678E-1,5.825195038E-1,7.262709618E-1,1.142139701E0
7.265710542E0,6.180720368E-1,3.868482792E-1,6.539759874E-1,9.794637441E-1
7.275773542E0,1.124577445E-1,4.406216133E-1,4.341569316E-1,6.287180542E-1
7.285836542E0,-6.653962574E-1,-1.134582031E-1,4.223700412E-1,7.962546044E-1
7.295899542E0,-1.013122059E0,-7.255915153E-1,4.580903162E-1,1.327684485E0
7.305961542E0,-7.421570427E-1,-8.542969179E-1,4.701827236E-1,1.225435471E0
7.316024542E0,-1.010061188E-1,-7.197922468E-1,4.821100934E-1,8.722002389E-1
7.326087542E0,1.931597724E-1,-3.796702373E-1,3.993939921E-1,5.839312868E-1
7.336150542E0,3.338212692E-1,-1.042213565E-1,3.207039180E-1,4.744994562E-1
7.346213542E0,6.648965397E-1,2.460432333E-1,3.437905526E-1,7.879191743E-1
7.356275542E0,8.387373309E-1,6.212070215E-1,3.151162456E-1,1.090264519E0
7.366338542E0,2.402536127E-1,6.916057438E-1,1.246363252E-1,7.426806291E-1
7.376401542E0,2.055436635E-1,5.261745644E-1,4.765936840E-1,7.390868754E-1
7.386464542E0,2.729793093E-1,3.528981757E-1,5.358078521E-1,6.972409054E-1
7.396526542E0,2.269494429E-1,1.357431114E-1,3.953004295E-1,4.755992761E-1
7.406589542E0,1.137461784E-1,-4.130309415E-1,3.635477096E-1,5.618715947E-1
7.416652542E0,-2.343490943E-1,-8.032600808E-1,4.564956343E-1,9.531707715E-1
7.426715542E0,-1.527389938E-1,-7.760272586E-1,3.218318459E-1,8.538871374E-1
7.436777542E0,-1.621789581E-1,-4.313175237E-1,1.406056559E-1,4.817746062E-1
7.446840542E0,-1.414372762E-1,-1.459769082E-1,8.207605049E-2,2.192036470E-1
7.456903542E0,1.558663040E-1,1.002277082E-1,1.387222677E-1,2.314816749E-1
7.466966542E0,2.978895443E-1,1.870278704E-1,2.007746013E-1,4.050037598E-1
7.477029542E0,9.392733335E-2,1.087120181E-1,1.301180899E-1,1.938333412E-1
7.487091542E0,-1.194480908E-1,-1.968769205E-1,7.189677894E-2,2.412416113E-1
7.497154542E0,-2.725788481E-1,-1.845223385E-1,1.455301078E-1,3.598982274E-1
7.507217542E0,-3.311548658E-1,-2.441861576E-1,2.388703077E-1,4.757619663E-1
7.517280542E0,-3.081953350E-1,-3.268839133E-1,3.543868768E-1,5.722128238E-1
7.527342542E0,-2.700698078E-1,-6.363758683E-2,2.102564462E-1,3.481310339E-1
7.537405542E0,-2.364763845E-1,9.430681765E-2,4.654493295E-2,2.588074324E-1
7.547468542E0,2.128795803E-2,2.009582770E-1,1.415336090E-1,2.467167784E-1
7.557531542E0,7.357127532E-2,2.028568679E-1,2.196981646E-1,3.079463020E-1
7.567594542E0,-1.270035705E-1,6.606301188E-2,1.668953222E-1,2.198824164E-1
7.577656542E0,-2.598414928E-1,-4.247943699E-2,1.344678336E-1,2.956411714E-1
7.587719542E0,-3.604825991E-1,-1.711748993E-1,1.927885473E-2,3.995249988E-1
7.597782542E0,-4.199759719E-1,-2.758558470E-1,2.958691120E-3,5.024788743E-1
7.607845542E0,-3.188819987E-1,-4.781987447E-1,1.243650144E-1,5.880700853E-1
7.617907542E0,-2.284217718E-1,-3.185720962E-1,2.026235640E-2,3.925242023E-1
7.627970542E0,-1.715722907E-1,4.759048820E-2,-8.926432505E-3,1.782739092E-1
7.638033542E0,-1.414374223E-1,2.708547235E-2,1.004820621E-1,1.755984398E-1
7.648096542E0,-2.772367401E-1,7.436839700E-2,1.722933255E-2,2.875547225E-1
7.658158542E0,-7.538084239E-3,1.316173160E-1,2.036572056E-1,2.426029636E-1
7.668221542E0,1.693034980E-1,2.108909422E-1,1.423416942E-1,3.056138443E-1
7.678284542E0,2.221064866E-1,1.405822670E-1,1.386573637E-1,2.971877011E-1
7.688347542E0,1.799914773E-1,1.459523499E-1,1.576276316E-1,2.802596842E-1
7.698410542E0,2.934656140E-1,1.517913795E-1,1.454529977E-1,3.609975956E-1
7.708472542E0,2.517096238E-1,5.865692854E-2,2.618951811E-1,3.679503443E-1
7.718535542E0,1.355264720E-1,-1.031530702E-1,2.619342113E-1,3.124380123E-1
7.728598542E0,1.681717694E-2,-1.543279016E-1,2.087596321E-1,2.601547667E-1
7.738661542E0,-4.427197404E-2,-7.883333087E-2,1.767489769E-1,1.985318679E-1
7.748723542E0,1.565526210E-2,1.243118048E-3,2.339844473E-1,2.345108828E-1
7.758786542E0,2.092487517E-1,-1.562843800E-2,3.412692332E-1,4.006169963E-1
7.768849542E0,2.341286543E-1,-6.842177868E-2,2.979156375E-1,3.850344058E-1
7.778912542E0,7.012887329E-2,-2.155143356E-1,8.397420287E-2,2.416943410E-1
7.788975542E0,-1.601800874E-2,-1.962091684E-1,-1.082332774E-1,2.246531921E-1
7.799037542E0,-4.276200369E-2,1.058696866E-2,-1.493649311E-1,1.557258987E-1
7.809100542E0,-1.020290161E-1,7.223591745E-2,-1.541689304E-1,1.984842739E-1
7.819163542E0,-5.073658258E-2,1.369733655E-1,-8.921681643E-3,1.463403570E-1
7.829226333E0,-7.926558629E-2,2.820819622E-1,1.451245303E-1,3.269776688E-1
7.839288333E0,-7.431175210E-2,6.101394117E-2,3.246303233E-1,3.385702059E-1
7.849351333E0,2.581516474E-2,-8.111842275E-3,3.154789191E-1,3.166372896E-1
7.859414333E0,1.144513527E-1,-8.489572406E-3,2.997902548E-1,3.210068252E-1
7.869477333E0,1.116796263E-1,-4.171637535E-2,1.447267004E-1,1.875057671E-1
7.879540333E0,6.015016124E-2,-1.318734241E-1,1.136019715E-1,1.841576764E-1
7.889602333E0,6.557089560E-2,-2.413327163E-1,7.118276082E-2,2.600153991E-1
7.899665333E0,7.956810661E-2,-3.023700464E-1,3.254194781E-2,3.143528382E-1
7.909728333E0,-4.243068583E-2,-2.638936132E-1,-8.428183950E-2,2.802563660E-1
7.919791333E0,-9.433941588E-2,-5.061466813E-2,-1.913548831E-1,2.192680125E-1
7.929853333E0,-1.492529570E-1,2.557864487E-2,-4.190107428E-2,1.571191021E-1
7.939916333E0,-1.034262814E-1,7.218621612E-2,3.971319236E-2,1.322307949E-1
7.949979333E0,1.980503105E-2,1.414920938E-1,6.135008298E-2,1.554866057E-1
7.960042333E0,2.135515715E-1,1.724390674E-1,2.355257734E-1,3.616792717E-1
7.970104333E0,3.707950410E-1,2.254920244E-1,3.386742389E-1,5.504869259E-1
7.980167333E0,3.942070732E-1,1.594494778E-1,3.251319413E-1,5.352888303E-1
7.990230333E0,2.337740207E-1,6.677520275E-3,2.194471729E-1,3.207053846E-1
8.000293333E0,-6.939658262E-2,-6.887435317E-2,5.671674930E-2,1.130325256E-1
8.010356333E0,-1.641564864E-1,-1.346695626E-1,1.779015362E-2,2.130721302E-1
8.020418333E0,-6.073283628E-3,-7.779661953E-2,-9.284684099E-2,1.212836950E-1
8.030481333E0,1.292088479E-1,-4.214322209E-2,-1.281429005E-1,1.867928812E-1
8.040544333E0,2.080199593E-1,-5.780966699E-2,-9.020967364E-2,2.339915518E-1
8.050607333E0,2.069198057E-1,-3.667081296E-2,-4.572873473E-2,2.150620183E-1
8.060669333E0,2.386172694E-1,6.143786430E-2,8.349823952E-3,2.465411365E-1
8.070732333E0,2.817665049E-1,1.708141261E-1,5.643849492E-2,3.342979699E-1
8.080795333E0,3.445281058E-1,1.524924606E-1,8.841918312E-2,3.870032534E-1
8.090858333E0,3.591929957E-1,5.019776165E-2,1.896193564E-1,4.092614369E-1
8.100921333E0,2.689779134E-1,-3.476403594E-2,2.947032503E-1,4.005092531E-1
8.110983333E0,2.223397905E-1,-9.478921294E-3,2.800395298E-1,3.576967579E-1
8.121046333E0,8.214957923E-2,6.216759682E-3,1.729395890E-1,1.915601809E-1
8.131109333E0,-8.361255258E-2,4.048612118E-2,1.936773241E-2,9.489622762E-2
8.141172333E0,-1.297377285E-1,1.289556634E-1,-9.714096308E-2,2.071178603E-1
8.151234333E0,-6.164792553E-2,1.403092021E-1,-5.229742371E-2,1.619325768E-1
8.161297333E0,-6.176428512E-2,1.017433065E-1,-1.923273481E-2,1.205670993E-1
8.171360333E0,-2.770103797E-2,5.537722528E-2,4.181219660E-2,7.471441875E-2
8.181423333E0,2.060193345E-2,1.196276003E-1,7.350410543E-2,1.419086183E-1
8.191486333E0,1.066682701E-1,2.077580041E-1,5.071809076E-2,2.389850054E-1
8.201548333E0,1.711023939E-1,2.590725839E-1,1.544004071E-1,3.467479180E-1
8.211611333E0,-5.013402700E-3,1.595401096E-1,1.930189276E-1,2.504685353E-1
8.221674333E0,2.207531485E-1,1.628777003E-1,1.526041424E-1,3.139253448E-1
8.231737333E0,1.878746934E-1,7.131381154E-2,6.863629840E-2,2.123523054E-1
8.241799333E0,2.182590187E-2,2.673697829E-2,6.980406046E-2,7.787068034E-2
8.251862333E0,-2.840679690E-2,-1.190025330E-1,8.169313096E-2,1.471132781E-1
8.261925333E0,-1.616214260E-2,-1.799474770E-1,6.784517013E-2,1.929903532E-1
8.271988333E0,9.452053338E-2,-6.393345594E-2,1.027402568E-1,1.535486190E-1
8.282051333E0,2.573779146E-1,-8.964424789E-2,1.533174296E-1,3.127070776E-1
8.292113333E0,3.681253485E-1,-2.489159703E-3,1.401139782E-1,3.938964268E-1
8.302176333E0,3.678563766E-1,4.646782279E-2,1.128792556E-1,3.875813447E-1
8.312239333E0,2.786049154E-1,-2.568097115E-3,4.861024261E-2,2.828254757E-1
8.322302333E0,8.406834304E-3,-2.676270604E-2,-2.210726988E-1,2.228453622E-1
8.332364333E0,-1.244274335E-1,-2.637737453E-2,-2.157798723E-1,2.504773550E-1
8.342427333E0,1.272339508E-1,8.945538282E-2,-3.726021230E-2,1.599345715E-1
8.352490333E0,2.423697200E-1,1.662644076E-1,1.155760646E-2,2.941436940E-1
8.362553333E0,3.227133867E-1,1.073279822E-1,1.517983961E-1,3.724325157E-1
8.372616333E0,3.228977202E-1,4.690168619E-2,1.709690043E-1,3.683654521E-1
8.382678333E0,3.363365221E-1,8.829295635E-3,1.428463089E-1,3.655205610E-1
8.392741333E0,2.830768660E-1,-1.113953054E-2,1.094610465E-1,3.037076257E-1
8.402804333E0,8.033738092E-2,-4.647834778E-2,-5.372312106E-2,1.072404090E-1
8.412867333E0,-1.458669806E-1,-6.558938742E-2,-1.348262680E-1,2.091823757E-1
8.422929333E0,-1.121666993E-1,-6.343468845E-2,2.534881275E-2,1.313312242E-1
8.432992333E0,1.025250793E-2,-6.335399687E-2,1.433654321E-1,1.570747909E-1
8.443055333E0,2.824883437E-1,-1.399577844E-1,2.212036765E-1,3.851219446E-1
8.453118333E0,3.962318909E-1,-1.117291814E-1,1.942380720E-1,4.552049538E-1
8.463181333E0,3.814198704E-1,-7.511333227E-3,8.713107806E-2,3.913174701E-1
8.473243333E0,1.015864550E-1,-2.214340568E-3,-7.258386333E-2,1.248724483E-1
8.483306333E0,-4.143015414E-2,-5.874697566E-2,-2.034018284E-1,2.157312416E-1
8.493369333E0,-6.013875917E-2,-6.213660657E-2,-3.103579642E-1,3.221795993E-1
8.503432333E0,4.508349448E-3,2.148676336E-2,-1.980452307E-1,1.992584242E-1
8.513494333E0,1.481007631E-1,6.655768633E-2,1.963491362E-2,1.635521063E-1
8.523557333E0,1.556781699E-1,7.998230875E-2,7.621487461E-2,1.908967506E-1
8.533620333E0,-1.783299910E-1,-4.897160053E-2,5.697285734E-2,1.935089399E-1
8.543683333E0,-4.469401145E-1,-1.699387980E-1,3.404365897E-2,4.793679502E-1
8.553745333E0,-3.544615750E-1,-1.776430893E-1,3.062259927E-3,3.964964726E-1
8.563808333E0,-2.425413358E-1,-1.722999036E-1,9.461028814E-2,3.121933103E-1
8.573871333E0,5.819792211E-2,-9.043011367E-2,1.638103312E-1,1.959551689E-1
8.583934333E0,2.141775160E-1,3.188837528E-2,4.430263538E-2,2.210239813E-1
8.593997333E0,1.312129810E-1,8.221886873E-2,-5.039013505E-2,1.628372024E-1
8.604059333E0,1.436501549E-1,7.440055668E-2,-9.437175829E-2,1.872881166E-1
8.614122333E0,1.971071546E-1,1.260121751E-1,-1.102258988E-1,2.586117697E-1
8.624185333E0,2.746545365E-1,1.590694088E-1,-3.965004243E-2,3.198598398E-1
8.634248333E0,2.909535040E-1,1.479263699E-1,2.106155018E-1,3.884521103E-1
8.644310333E0,2.320862219E-1,5.567835689E-2,3.211302531E-1,4.001109012E-1
8.654373333E0,5.400386050E-2,-1.642833710E-2,3.379286824E-1,3.426107143E-1
8.664436333E0,8.787005648E-2,9.504005849E-2,5.223664921E-2,1.395794651E-1
8.674499333E0,1.816766448E-1,-6.221729815E-2,-4.970197989E-1,5.328283739E-1
8.684562333E0,1.935035156E-1,-1.454009575E-1,-7.636568892E-1,8.010973058E-1
8.694624333E0,2.653561480E-1,3.745433986E-2,-3.415323945E-1,4.341210538E-1
8.704687333E0,2.960120764E-1,6.001114368E-2,1.838341212E-1,3.535809255E-1
8.714750333E0,1.696389820E-1,1.807619941E-1,3.796427919E-1,4.534103353E-1
8.724813333E0,-9.293140635E-2,1.762380034E-1,4.078585311E-1,4.539214266E-1
8.734875333E0,-7.398672000E-2,1.388105607E-1,2.443458597E-1,2.905981859E-1
8.744938333E0,8.176556334E-2,1.509429485E-1,-2.647993835E-1,3.155758142E-1
8.755001333E0,1.678892027E-1,9.153757632E-2,-3.102380963E-1,3.644359870E-1
8.765064333E0,3.034855489E-1,-7.325216353E-2,-5.958901126E-2,3.178367634E-1
8.775127333E0,1.032458948E-1,-2.178789496E-1,-6.101094447E-2,2.487032103E-1
8.785189333E0,-3.465244183E-1,-2.852926683E-1,-9.201353967E-2,4.581894483E-1
8.795252333E0,-4.661197127E-1,-2.799313563E-1,-1.528673037E-1,5.647986928E-1
8.805315333E0,-2.770659283E-1,-1.737815881E-1,-3.080640650E-1,4.492983831E-1
8.815378333E0,-1.359585813E-1,1.232593060E-2,5.244484663E-2,1.462433804E-1
8.825440167E0,-4.238178849E-2,7.783638060E-2,2.487300289E-1,2.640479983E-1
8.835503167E0,8.753793463E-2,8.048750818E-2,2.082883100E-1,2.398440098E-1
8.845566167E0,8.567077249E-2,1.103761357E-1,1.486923552E-1,2.040386950E-1
8.855629167E0,1.231271589E-1,5.865517437E-2,1.716087627E-1,2.192037732E-1
8.865692167E0,3.271078616E-3,7.643948078E-2,6.227397960E-2,9.864959560E-2
8.875754167E0,-1.175981779E-1,3.699942648E-2,-1.180214067E-1,1.706673415E-1
8.885817167E0,-7.175527632E-2,-9.837823391E-2,-1.508049542E-1,1.938278380E-1
8.895880167E0,1.522047776E-1,-2.558975458E-1,-2.392095923E-2,2.987006203E-1
8.905943167E0,1.850920035E-1,-2.776719922E-1,1.531321095E-1,3.671651235E-1
8.916005167E0,9.973171815E-2,-1.633869928E-1,2.008798878E-1,2.774787457E-1
8.926068167E0,-1.192931396E-1,1.998402894E-1,5.729277313E-2,2.396861620E-1
8.936131167E0,-1.875905187E-1,5.159928077E-1,-1.990275629E-1,5.839955061E-1
8.946194167E0,-1.520495340E-2,5.449189836E-1,-1.317272802E-1,5.608207964E-1
8.956256167E0,-2.329223737E-2,1.679758877E-1,8.030094545E-2,1.876344025E-1
8.966319167E0,1.331123029E-1,1.082489187E-1,3.691343587E-2,1.754973371E-1
8.976382167E0,1.303386761E-1,1.073233044E-1,4.077610653E-2,1.736926971E-1
8.986445167E0,1.076158114E-1,-7.033381820E-2,7.832232077E-2,1.505403427E-1
8.996508167E0,1.003797358E-1,-2.301838303E-1,3.253741622E-2,2.532180296E-1
9.006570167E0,-8.354063183E-3,-3.689557993E-1,4.158886950E-2,3.713863303E-1
9.016633167E0,-1.395778616E-1,-3.116109860E-1,1.475248855E-2,3.417616449E-1
9.026696167E0,3.305284828E-3,-1.078711885E-1,9.972773474E-2,1.469446811E-1
9.036759167E0,2.483311026E-1,9.339757562E-2,6.703660984E-2,2.736518787E-1
9.046821167E0,3.135620557E-1,2.344908893E-1,6.490756553E-2,3.968880598E-1
9.056884167E0,1.001695284E-1,2.521483111E-1,-2.474892497E-2,2.724430482E-1
9.066947167E0,-2.781741218E-1,9.742806137E-2,-4.558492977E-2,2.982466345E-1
9.077010167E0,-4.406010018E-1,-1.752773058E-1,1.060270132E-1,4.858941287E-1
9.087073167E0,-3.738779855E-1,-2.331816977E-1,1.035612059E-1,4.526404484E-1
9.097135167E0,-1.543624002E-1,1.523725927E-2,4.452069998E-3,1.551764982E-1
9.107198167E0,8.489455462E-2,2.762715840E-1,-4.817170143E-2,2.930078265E-1
9.117261167E0,1.003206789E-1,3.687347746E-1,7.898418903E-2,3.902154209E-1
9.127324167E0,3.038619635E-1,2.708056068E-1,2.963485837E-2,4.081004709E-1
9.137386167E0,3.426941997E-1,-1.707562387E-2,-4.030953526E-2,3.454790154E-1
9.147449167E0,9.128263772E-2,-3.435525709E-1,2.997282743E-2,3.567341578E-1
9.157512167E0,4.427833289E-2,-3.611064970E-1,1.317354298E-1,3.869272495E-1
9.167575167E0,-1.370338842E-1,-3.610877860E-1,2.308966058E-1,4.499732405E-1
9.177638167E0,-3.033088169E-1,-2.246278059E-1,1.787821269E-1,4.176325400E-1
9.187700167E0,-2.155355318E-1,-2.965298474E-2,-2.671044655E-3,2.175821671E-1
9.197763167E0,3.514439732E-2,3.539495051E-1,-1.327423203E-1,3.796523468E-1
9.207826167E0,2.875412151E-1,3.275504959E-1,1.328885007E-1,4.556628483E-1
9.217889167E0,1.912209088E-1,1.158310032E-1,2.045730257E-1,3.030385786E-1
9.227951167E0,2.006833117E-1,1.971973479E-1,5.850486439E-2,2.873732847E-1
9.238014167E0,-6.438135266E-2,-6.167058349E-3,-1.338111913E-1,1.486217551E-1
9.248077167E0,-1.847117883E-1,3.364721775E-2,6.719620228E-2,1.994139153E-1
9.258140167E0,-1.508077316E-1,-9.189776480E-2,2.100132386E-1,2.743970326E-1
9.268202167E0,-1.592318152E-1,-2.315637732E-1,2.966082366E-1,4.085988229E-1
9.278265167E0,1.004573576E-1,-1.062281209E-1,3.765542195E-1,4.039420436E-1
9.288328167E0,3.600652541E-1,-8.478345752E-2,9.457056362E-2,3.818099179E-1
9.298391167E0,1.971970555E-1,-2.898768854E-1,4.597665668E-2,3.535945989E-1
9.308454167E0,-5.255784407E-2,-2.481640184E-1,1.376744832E-1,2.886208072E-1
9.318516167E0,-3.045773703E-1,-3.035277951E-1,2.007395911E-1,4.745449192E-1
9.328579167E0,-5.772900465E-1,-5.331783593E-2,1.829289722E-1,6.079223621E-1
9.338642167E0,-4.674609178E-1,1.108573616E-1,2.169913423E-1,5.271568144E-1
9.348705167E0,-7.486336380E-3,2.637930411E-1,1.193708710E-1,2.896415347E-1
9.358767167E0,2.054359286E-1,1.295994419E-1,1.372922581E-2,2.432867192E-1
9.368830167E0,7.668082461E-1,1.649546313E-1,8.748604059E-2,7.892139912E-1
9.378893167E0,4.616097553E-1,-5.387566030E-2,-2.188168796E-1,5.136798417E-1
9.388956167E0,1.645470804E-1,-9.531019986E-2,1.490966901E-3,1.901630849E-1
9.399019167E0,-3.030423300E-1,-4.511822695E-1,-9.605809528E-2,5.519304772E-1
9.409081167E0,-4.930231905E-1,-8.163075578E-1,-6.963916898E-2,9.561796427E-1
9.419144167E0,-3.165284944E-1,-1.046458059E0,3.034120202E-3,1.093285856E0
9.429207167E0,-3.468963012E-2,-9.031597602E-1,2.870069989E-1,9.483005538E-1
9.439270167E0,5.077327386E-2,-6.230412930E-1,2.833431701E-1,6.863247993E-1
9.449332167E0,-3.400264075E-1,-2.132491243E-1,1.249585068E-1,4.203662394E-1
9.459395167E0,-6.019986257E-1,6.597413421E-2,1.406231976E-1,6.217152205E-1
9.469458167E0,-8.735599852E-1,-1.233369570E0,3.671349764E-1,1.555344217E0
9.479521167E0,-4.146085203E-1,-3.187942320E0,5.487237668E-1,3.261284138E0
9.489583167E0,-2.015757430E-1,-3.249986540E0,4.937622055E-1,3.293455086E0
9.499646167E0,-3.633456883E-1,-3.380140298E0,4.500169194E-1,3.429268690E0
9.509709167E0,3.936637938E-3,-3.378161600E0,2.679632753E-1,3.388774943E0
9.519772167E0,3.621195272E-1,-3.249863749E0,3.147521833E-1,3.285089629E0
9.529835167E0,7.036556858E-1,-2.678596042E0,4.196306207E-1,2.801088706E0
9.539897167E0,1.298949017E0,-1.891295351E0,3.039499275E-1,2.314444256E0
9.549960167E0,1.495033932E0,-1.717617844E0,4.586971110E-1,2.322873340E0
9.560023167E0,1.274870183E0,1.024369032E0,8.576041031E-1,1.846648503E0
9.570086167E0,6.877196842E-1,3.551189482E-1,8.471158793E-1,1.147463788E0
9.580148167E0,2.855499458E-1,1.282035946E0,2.481558323E-3,1.313453880E0
9.590211167E0,1.031495619E-1,1.251159723E0,-4.140138584E-1,1.321910723E0
9.600274167E0,-1.621815893E-1,2.186703118E0,-2.891577510E-1,2.211692926E0
9.610337167E0,-3.310626259E-1,2.211553200E0,1.697994880E-3,2.236196078E0
9.620400167E0,-1.170115560E-1,1.467645866E0,3.463919058E-1,1.512502379E0
9.630462167E0,-3.201879743E-1,4.678854257E-1,4.354105381E-1,7.148562423E-1
9.640525167E0,3.044873232E-1,-1.302053304E0,-1.731700059E-1,1.348348318E0
9.650588167E0,1.265685377E-1,-2.290568379E0,-1.945918651E-1,2.302300825E0
9.660651167E0,-2.272245544E-1,-2.988665117E0,1.131435863E-1,2.999425220E0
9.670713167E0,-1.852397919E-2,-2.751045967E0,1.119503231E0,2.970165742E0
9.680776167E0,2.101574090E-1,-1.345272413E0,1.040216668E0,1.713468622E0
9.690839167E0,8.286837745E-1,1.618839660E0,1.840744052E-1,1.827906461E0
9.700902167E0,5.835632318E-1,7.929719049E0,-5.347629547E-1,7.969125526E0
9.710964167E0,4.631614602E-1,9.135074608E0,-1.237212360E0,9.230102982E0
9.721027167E0,6.911707109E-1,6.968397034E0,-9.676709211E-1,7.069134402E0
9.731090167E0,3.143831509E-1,1.318880421E0,3.737540245E-2,1.356347762E0
9.741153167E0,2.080810627E-1,-1.531089910E0,9.243032920E-1,1.800519541E0
9.751216167E0,4.448883265E-1,-1.874872862E0,1.819038969E0,2.649901251E0
9.761278167E0,4.998021600E-1,-1.044540757E0,8.353110087E-1,1.427799731E0
9.771341167E0,-2.551716140E-1,-1.413251558E0,-4.262737155E-2,1.436735749E0
9.781404167E0,-4.008459288E-1,2.917105722E-1,-9.021025836E-1,1.029350080E0
9.791467167E0,-1.696025831E-1,2.155522256E0,-9.770182800E-1,2.372679066E0
9.801529167E0,-2.671212763E-2,1.819853486E0,-1.335188671E-1,1.824940420E0
9.811592167E0,2.734508872E-2,1.885142326E-1,5.264973307E-1,5.598971414E-1
9.821655167E0,-6.564698249E-2,-1.201352556E0,5.209839910E-1,1.311099465E0
9.831718333E0,-1.641675961E-1,-2.489611108E0,2.115013915E-1,2.503966315E0
9.841780333E0,1.185046425E-1,-3.330496852E0,1.627046227E-1,3.336573906E0
9.851843333E0,4.731072816E-1,-2.192711717E0,-1.961319852E-1,2.251728876E0
9.861906333E0,8.176734674E-1,3.489834648E-1,-1.243819714E-2,8.891198270E-1
9.871969333E0,7.298403946E-1,2.048024120E0,1.888486934E-1,2.182368811E0
9.882032333E0,3.758157527E-1,2.504564193E0,5.119272387E-1,2.583824447E0
9.892094333E0,-5.187620491E-2,1.358733873E0,7.163681173E-1,1.536890419E0
9.902157333E0,-3.930328792E-1,4.482101297E-1,5.799970150E-1,8.317233326E-1
9.912220333E0,-4.864450729E-1,-5.128627932E-1,2.639538578E-1,7.545387284E-1
9.922283333E0,-7.288066068E-1,-1.149690067E0,1.048592969E-1,1.365262536E0
9.932345333E0,-6.334794500E-1,-7.933940738E-1,-3.328761399E-2,1.015814174E0
9.942408333E0,-1.537338245E-1,-2.515630049E-1,7.053144495E-2,3.031381186E-1
9.952471333E0,5.461895835E-1,-1.366622937E-1,2.358684933E-1,6.104372120E-1
9.962534333E0,1.200320815E0,2.702583075E-2,6.155539334E-1,1.349224629E0
9.972596333E0,1.265508791E0,7.075978786E-1,6.599027252E-1,1.593009373E0
9.982659333E0,6.320325565E-1,1.759029579E-1,5.803197813E-1,8.758870085E-1
9.992722333E0,1.618582383E-1,-1.768338346E-1,2.597678179E-1,3.534792972E-1
1.000278533E1,-2.690988046E-1,1.803456724E-1,1.631840487E-2,3.243532311E-1
1.001284833E1,-2.941883299E-1,-3.577478564E-1,-1.998917449E-1,5.044670572E-1
1.002291033E1,-1.709714162E-1,-8.840656775E-1,-8.710421741E-2,9.046493752E-1
1.003297333E1,-1.499875134E-1,-5.671682239E-2,8.508868217E-2,1.815299864E-1
1.004303633E1,-1.771916842E-1,6.645366436E-1,2.952060378E-1,7.484333293E-1
1.005309933E1,-2.414610627E-1,1.524003085E0,5.439641333E-1,1.636088575E0
1.006316133E1,-2.107687354E-1,1.445391948E0,5.474642766E-1,1.559903355E0
1.007322433E1,-7.454673707E-2,1.020488820E0,3.944672012E-1,1.096612521E0
1.008328733E1,2.762210056E-1,9.819989383E-2,1.651265395E-1,3.364640206E-1
1.009335033E1,6.565452540E-1,-5.968755877E-1,8.280943751E-2,8.911619049E-1
1.010341233E1,8.026554787E-1,-8.718257010E-1,1.555721891E-1,1.195214866E0
1.011347533E1,9.082491767E-1,3.575853038E-1,2.013593960E-1,9.966591307E-1
1.012353833E1,8.189671639E-1,6.230781305E-1,5.630599701E-1,1.173017520E0
1.013360133E1,4.396945372E-1,6.555635065E-1,8.611937088E-1,1.168224893E0
1.014366433E1,1.499369350E-1,9.728375208E-1,9.726515794E-1,1.383815386E0
1.015372633E1,-1.854140389E-1,1.517600384E0,1.279630401E0,1.993725973E0
1.016378933E1,-4.800666377E-1,2.145481417E0,5.905869073E-1,2.276476967E0
1.017385233E1,-3.809507775E-1,2.421515604E0,4.236120629E-1,2.487631101E0
1.018391533E1,-5.735913903E-2,2.197918078E0,2.398978462E-1,2.211715380E0
1.019397733E1,2.265667427E-1,1.649814116E0,4.547500212E-2,1.665919290E0
1.020404033E1,4.318142447E-1,1.395194187E0,-2.808889110E-2,1.460759852E0
1.021410333E1,5.870817938E-1,7.103940171E-1,7.449469686E-2,9.245940472E-1
1.022416633E1,7.682416910E-1,3.514094746E-1,2.321145809E-1,8.761056405E-1
1.023422833E1,8.855257273E-1,1.229702781E0,3.890678458E-1,1.564512234E0
1.024429133E1,1.083401645E0,2.007384802E0,9.442510682E-1,2.468797874E0
1.025435433E1,9.441548815E-1,-2.880484611E-1,5.661203663E-1,1.137933489E0
1.026441733E1,4.396743643E-1,-1.670784570E0,2.517180292E-1,1.745908529E0
1.027448033E1,-4.709376723E-2,-2.760818419E0,-3.445436740E-1,2.782633017E0
1.028454233E1,-4.277033597E-1,-3.747081732E0,-6.325634837E-1,3.824093125E0
1.029460533E1,-5.658087462E-1,-4.081238996E0,-7.923819939E-1,4.195774125E0
1.030466833E1,-1.184271669E-1,-3.102815630E0,-1.222722960E0,3.337145676E0
1.031473133E1,6.573618177E-1,-1.502964803E0,-1.131052651E0,1.992563138E0
1.032479333E1,9.625531456E-1,-4.423348475E-1,-5.403973317E-1,1.189200551E0
1.033485633E1,8.328382212E-1,1.653615975E-1,-2.692182340E-2,8.495226573E-1
1.034491933E1,5.628538558E-1,4.589304149E-1,2.726743039E-1,7.757402044E-1
1.035498233E1,3.315102303E-1,4.190629292E-1,3.301367193E-1,6.280947579E-1
1.036504433E1,1.816235813E-1,3.054234624E-1,1.707797007E-1,3.942541348E-1
1.037510733E1,1.344467837E-1,-1.522381067E-2,9.022955418E-2,1.626317143E-1
1.038517033E1,2.704661760E-1,-1.829079223E-1,-5.528425455E-2,3.311549625E-1
1.039523333E1,4.169149545E-1,-2.496427792E-1,-2.251183873E-1,5.355538113E-1
1.040529633E1,5.521610525E-1,-2.885589230E-1,-3.404056726E-1,7.099465486E-1
1.041535833E1,6.039939880E-1,-1.929464221E-1,-3.901046667E-1,7.444586694E-1
1.042542133E1,5.132387692E-1,-8.276850700E-2,-4.262725461E-1,6.722893302E-1
1.043548433E1,2.959904417E-1,-5.871657014E-2,-4.166877902E-1,5.144771051E-1
1.044554733E1,8.843358189E-2,-1.055024815E-1,-3.817220253E-1,4.057868610E-1
1.045560933E1,8.893191084E-2,3.839030367E-1,-3.726296780E-1,5.423497979E-1
1.046567233E1,-2.132168184E-1,7.661144739E-1,-4.297119514E-1,9.039055039E-1
1.047573533E1,-4.259233211E-1,3.308465713E-1,3.851853311E-4,5.393239079E-1
1.048579833E1,-5.579338624E-1,-1.839259225E-1,-2.682709850E-2,5.880804647E-1
1.049586033E1,-3.728458057E-1,-4.058499759E-1,-4.147267071E-1,6.897292508E-1
1.050592333E1,-2.284621176E-1,-7.286449313E-1,-4.683081794E-1,8.957850892E-1
1.051598633E1,4.072234869E-2,-7.122967011E-1,-5.425550274E-1,8.963207338E-1
1.052604933E1,1.731421950E-1,-4.274139225E-1,-4.068153512E-1,6.149468358E-1
1.053611233E1,1.204982507E-1,-2.080895412E-1,-3.222657824E-1,4.020899403E-1
1.054617433E1,1.600925253E-1,5.787907344E-1,-7.322358526E-2,6.049710938E-1
1.055623733E1,7.569907710E-2,1.310492590E0,4.460358426E-2,1.313434680E0
1.056630033E1,-5.820286301E-1,4.613839066E-1,-1.351899648E-1,7.549230173E-1
1.057636333E1,-1.144101883E0,-2.925835615E-1,-4.839635146E-1,1.276242509E0
1.058642533E1,-1.305261963E0,-1.280101687E-1,-7.523869658E-1,1.512012415E0
1.059648833E1,-7.996587807E-1,-8.704159373E-1,-6.207930386E-1,1.335088786E0
1.060655133E1,-1.101118416E-2,8.303806365E-2,-2.368374500E-1,2.512141396E-1
1.061661433E1,3.469021484E-1,2.112844598E-1,2.261259357E-1,4.648818800E-1
1.062667633E1,2.290010847E-1,2.874385965E-1,2.492784246E-1,4.440745169E-1
1.063673933E1,-1.607329416E-1,5.579588592E-1,-1.300175909E-1,5.950275128E-1
1.064680233E1,-4.703102660E-1,5.772149098E-1,-2.856739068E-1,7.974825261E-1
1.065686533E1,-8.723765087E-1,-7.637247169E-1,-7.168914431E-1,1.363176275E0
1.066692833E1,-8.584364542E-1,6.853170633E-2,-5.138205671E-1,1.002806719E0
1.067699033E1,-4.186882688E-1,5.871148306E-1,-4.540889934E-1,8.521739874E-1
1.068705333E1,-2.741047521E-1,1.449624163E-1,-4.079293189E-1,5.124000844E-1
1.069711633E1,-1.660166319E-1,-9.839226723E-2,-9.876890101E-2,2.167898893E-1
1.070717933E1,1.260639229E-1,-1.009936935E-1,-1.267457083E-2,1.620261816E-1
1.071724133E1,2.042870969E-1,-1.580823988E-1,-2.410853791E-1,3.533347178E-1
1.072730433E1,6.980113685E-4,-2.895430094E-1,-2.521249954E-1,3.839305338E-1
1.073736733E1,-4.311093628E-2,-1.505985475E-1,-2.701122732E-1,3.122484836E-1
1.074743033E1,4.181241587E-2,1.243229145E-1,-1.921705697E-1,2.326671293E-1
1.075749233E1,4.568020284E-2,3.313032389E-1,-4.538126394E-2,3.375025572E-1
1.076755533E1,-2.905642256E-2,3.577437633E-1,-2.732645072E-2,3.599605684E-1
1.077761833E1,-7.452159405E-2,2.713874048E-1,-6.767815903E-2,2.894562569E-1
1.078768133E1,-1.393213150E-1,6.855860353E-2,-8.760883212E-2,1.782863382E-1
1.079774433E1,-1.896775362E-1,-7.240724087E-2,-1.078331816E-1,2.298877363E-1
1.080780633E1,-2.428825209E-1,-1.513504994E-1,-1.045692658E-1,3.046861073E-1
1.081786933E1,-2.689745513E-1,-1.020596409E-1,-6.196002066E-2,2.942830673E-1
1.082793242E1,-2.362297051E-1,-9.508098900E-2,-5.205900349E-2,2.599134623E-1
1.083799542E1,-1.242053854E-1,-1.102398956E-1,3.940146267E-2,1.706818315E-1
1.084805742E1,-5.954599768E-2,-8.815320790E-2,2.195502301E-1,2.439651971E-1
1.085812042E1,-2.707640916E-1,-8.333276331E-2,3.439408261E-1,4.455926779E-1
1.086818342E1,-4.771988708E-1,-1.753609210E-1,1.509014332E-1,5.303220318E-1
1.087824642E1,-4.228672738E-1,-2.167913675E-1,-3.934598722E-2,4.768263154E-1
1.088830842E1,-1.578689754E-1,-1.972757006E-1,-7.444558024E-2,2.634055046E-1
1.089837142E1,4.718352199E-2,-1.218793631E-2,1.033185464E-1,1.142346382E-1
1.090843442E1,2.203435510E-2,8.169612765E-2,1.638553548E-1,1.844135227E-1
1.091849742E1,-6.137383729E-2,9.790344000E-2,1.052007651E-1,1.562659030E-1
1.092856042E1,-3.884261504E-2,1.894965649E-1,2.543228175E-1,3.195274517E-1
1.093862242E1,3.797284171E-2,1.685073996E-1,3.717658981E-1,4.099348282E-1
1.094868542E1,1.068274605E-1,8.317781210E-2,3.071226633E-1,3.356411552E-1
1.095874842E1,1.257727316E-1,4.784893513E-2,2.210134958E-1,2.587571563E-1
1.096881142E1,1.154521036E-1,3.952600837E-2,1.297239876E-1,1.781005517E-1
1.097887342E1,9.555432111E-2,1.509751081E-2,8.472849369E-2,1.285981367E-1
1.098893642E1,8.785733879E-2,3.417872965E-2,2.379714444E-2,9.722860496E-2
1.099899942E1,9.697270945E-2,4.306766689E-2,-5.325651325E-2,1.187214661E-1
1.100906242E1,1.116435197E-1,4.616961479E-2,-6.103309080E-2,1.353548928E-1
1.101912442E1,8.676902577E-2,7.443563998E-2,-2.426134028E-2,1.168680494E-1
1.102918742E1,3.341669127E-2,2.578095853E-2,-1.242832996E-2,4.399768703E-2
1.103925042E1,3.401120692E-2,-3.399103403E-2,-2.664444610E-2,5.497343994E-2
1.104931342E1,4.221558139E-2,-4.449555695E-2,-2.248729505E-2,6.532754655E-2
1.105937542E1,9.309790581E-2,-8.675279975E-2,-8.449811339E-2,1.527520851E-1
1.106943842E1,1.167947705E-1,-1.080992299E-1,-1.360881702E-1,2.093954441E-1
1.107950142E1,1.260411188E-1,-8.601546586E-2,-1.431896867E-1,2.092565659E-1
1.108956442E1,3.055170178E-2,-6.459536076E-2,-3.692297414E-2,8.043179180E-2
1.109962742E1,-1.483989711E-1,-7.217218280E-2,3.715832457E-3,1.650602496E-1
1.110968942E1,-2.330090587E-1,4.415174067E-2,-4.447925784E-2,2.412902858E-1
1.111975242E1,-2.384127630E-1,-5.249337852E-2,-2.270141277E-1,3.333640871E-1
1.112981542E1,2.087879911E-2,-2.643660682E-1,-3.183236627E-1,4.143130417E-1
1.113987842E1,2.946429509E-1,-3.638418245E-1,-2.325051749E-1,5.227370258E-1
1.114994042E1,2.924103378E-1,-3.153309846E-1,-7.883808173E-2,4.372103368E-1
1.116000342E1,7.286361605E-2,-2.108447492E-1,6.540753901E-2,2.324709895E-1
1.117006642E1,-1.658855081E-2,-9.660301924E-2,1.618298793E-1,1.891989249E-1
1.118012942E1,4.651664704E-2,3.391326606E-2,1.490735936E-1,1.598025168E-1
1.119019142E1,2.195018443E-1,2.147705698E-1,1.029513413E-1,3.238926303E-1
1.120025442E1,4.481899568E-1,4.478867787E-1,9.737660587E-2,6.410608453E-1
1.121031742E1,4.538418755E-1,3.565328050E-1,-1.409331000E-1,5.940961434E-1
1.122038042E1,-4.384578511E-1,1.030033815E-1,9.009974599E-1,1.007299065E0
1.123044342E1,-7.145917332E-1,-5.257120496E-1,5.980987521E-1,1.069923652E0
1.124050542E1,-1.151953378E0,-6.701271665E-1,-5.326697246E-1,1.435201742E0
1.125056842E1,-6.869896594E-1,-2.319596297E-1,-4.810855150E-1,8.701743128E-1
1.126063142E1,2.757953283E-1,9.923081642E-1,9.693506800E-2,1.034473278E0
1.127069442E1,5.939078334E-1,1.308739595E0,4.813919091E-1,1.515672792E0
1.128075642E1,5.978874484E-1,7.714985901E-1,6.518147834E-1,1.173687347E0
1.129081942E1,1.780176035E-1,-5.219458580E-2,4.725140085E-1,5.076258762E-1
1.130088242E1,-2.975841004E-1,-8.834295005E-1,2.384857070E-1,9.622262788E-1
1.131094542E1,-4.581509811E-1,-1.445369729E0,-1.332393336E-1,1.522086954E0
1.132100742E1,1.237969574E-1,-1.130760875E0,-2.715027411E-1,1.169469787E0
1.133107042E1,6.788605678E-1,-7.159699219E-1,-1.660047913E-1,1.000510965E0
1.134113342E1,6.956356448E-1,-3.738645369E-1,-3.543412685E-4,7.897365180E-1
1.135119642E1,5.769088081E-1,2.112306654E-2,1.340075847E-1,5.926449101E-1
1.136125942E1,3.867544314E-1,3.052538931E-1,1.845433885E-1,5.261322949E-1
1.137132142E1,1.315853025E-1,2.143402147E-1,5.414982162E-2,2.572714960E-1
1.138138442E1,-1.430500844E-1,-4.082607830E-1,-1.136218520E-1,4.472696265E-1
1.139144742E1,-1.939913195E-1,-9.247324777E-1,-2.291535509E-1,9.722520955E-1
1.140151042E1,-5.098465070E-2,-9.947441143E-1,-2.430571333E-1,1.025276576E0
1.141157242E1,1.713421297E-1,-4.879583323E-1,-1.382884043E-1,5.353364757E-1
1.142163542E1,1.479208151E-1,-7.907189727E-3,-3.293619633E-2,1.517494125E-1
1.143169842E1,-1.557477517E-1,8.638150156E-2,1.570964120E-2,1.787901530E-1
1.144176142E1,-3.995142254E-1,-2.594877362E-2,-3.391385078E-4,4.003561791E-1
1.145182342E1,-5.202413946E-1,-4.259182048E-1,-3.470380962E-2,6.732471911E-1
1.146188642E1,-6.140453517E-1,-1.032415386E0,-5.039773643E-2,1.202278318E0
1.147194942E1,-4.399635091E-1,-1.403650430E0,-1.728144586E-1,1.481103391E0
1.148201242E1,-5.650603026E-2,-5.892028713E-1,-1.077197456E-1,6.016282063E-1
1.149207442E1,2.307431164E-1,9.798495018E-1,8.359179497E-2,1.010116340E0
1.150213742E1,1.030709168E-1,1.647563522E0,2.320730656E-1,1.667017421E0
1.151220042E1,-4.459408253E-1,1.031280441E0,3.056919227E-1,1.164409773E0
1.152226342E1,-5.775429386E-1,1.327475828E-1,3.008065740E-1,6.645768290E-1
1.153232642E1,-9.517951459E-2,-2.006893051E-1,2.363445298E-1,3.243363592E-1
1.154238842E1,3.178882644E-1,-1.807298344E-1,2.077059639E-1,4.205448717E-1
1.155245142E1,4.731876808E-1,2.329799688E-1,1.618433279E-1,5.517059995E-1
1.156251442E1,3.335311742E-1,4.055494291E-1,1.137171616E-1,5.372568998E-1
1.157257742E1,2.737002710E-1,4.903235310E-1,1.859274244E-1,5.915217752E-1
1.158263942E1,1.184857853E-1,2.397902209E-1,1.962775078E-1,3.317575792E-1
1.159270242E1,-1.009878463E-1,-3.453722245E-1,2.158698463E-1,4.196192430E-1
1.160276542E1,-3.753970921E-2,-3.501897454E-1,1.892803641E-1,3.998363963E-1
1.161282842E1,3.564491898E-1,6.708878893E-1,5.378619790E-2,7.616032694E-1
1.162289042E1,4.721848834E-1,1.665881095E0,1.800935112E-1,1.740848086E0
1.163295342E1,3.907710300E-1,2.052290248E0,5.090778174E-1,2.150292419E0
1.164301642E1,3.702062264E-1,2.069072342E0,8.244328487E-1,2.257831377E0
1.165307942E1,5.022942433E-1,2.666693450E0,1.180853972E0,2.959386687E0
1.166314242E1,4.936868495E-1,2.874034547E0,1.316445640E0,3.199504713E0
1.167320442E1,4.938653357E-1,2.266937442E0,1.263938813E0,2.642054060E0
1.168326742E1,6.850220713E-1,2.072770706E0,1.149124056E0,2.467006229E0
1.169333042E1,8.698528504E-1,1.827249629E0,1.015143296E0,2.264067379E0
1.170339342E1,9.549007483E-1,1.555890875E0,8.413043316E-1,2.010080803E0
1.171345542E1,9.483574216E-1,9.786034602E-1,5.701782974E-1,1.477210148E0
1.172351842E1,8.754993604E-1,2.637006551E-1,4.393094250E-1,1.014411128E0
1.173358142E1,5.595933022E-1,-3.160759199E-1,1.486028197E-1,6.596449416E-1
1.174364442E1,-5.562500104E-1,-1.915417455E0,-9.672756493E-1,2.216722870E0
1.175370642E1,-1.575703873E0,-4.959583173E0,-1.512151948E0,5.419124603E0
1.176376942E1,-1.678067277E0,-6.891452939E0,-1.661734250E0,7.284874337E0
1.177383242E1,-2.820473175E-1,-5.059382281E0,-1.612392374E0,5.317584877E0
1.178389542E1,1.463541706E0,-8.147024971E-1,-8.050867510E-1,1.858456123E0
1.179395842E1,1.480867152E0,5.139246476E-1,7.685470618E-2,1.569392465E0
1.180402042E1,8.451841785E-1,3.075150114E-1,5.652521644E-1,1.062267286E0
1.181408342E1,6.388055326E-1,9.975197875E-1,4.369835488E-1,1.262565981E0
1.182414642E1,5.217018829E-1,1.190860312E0,2.738310293E-1,1.328647647E0
1.183420954E1,4.979772440E-1,9.907726854E-1,2.673844010E-1,1.140660452E0
1.184427154E1,4.602489620E-1,8.720303535E-1,2.191653371E-1,1.010098752E0
1.185433454E1,-1.484831710E-1,-5.181083304E-1,4.996597072E-1,7.349444313E-1
1.186439754E1,-1.773874198E0,-6.512599558E0,2.619821584E-1,6.754940216E0
1.187446054E1,1.717215848E0,-1.320935133E0,-1.365592073E0,2.560964974E0
1.188452254E1,2.098097920E0,2.114742020E0,-7.328059562E-1,3.067760301E0
1.189458554E1,8.857990846E-2,1.223061513E0,3.156069001E-1,1.266228092E0
1.190464854E1,-9.394483115E-1,2.957872510E-1,1.778090771E-1,1.000834300E0
1.191471154E1,-5.859218524E-1,-3.599411470E-1,-1.827355025E-1,7.115155025E-1
1.192477354E1,-1.733524024E-2,-5.567438078E-1,6.713129818E-2,5.610443737E-1
1.193483654E1,3.111319529E-1,-1.961501116E-1,1.048557063E-1,3.824561119E-1
1.194489954E1,3.496159874E-1,1.443934822E-1,-4.606970049E-2,3.810554207E-1
1.195496254E1,5.644423981E-1,3.876616269E-1,1.772120764E-1,7.073053639E-1
1.196502554E1,3.447948119E-1,5.149256909E-1,2.540159118E-1,6.697432440E-1
1.197508754E1,9.920239896E-2,3.569684225E-1,1.625724757E-1,4.045953293E-1
1.198515054E1,6.672696322E-3,2.263667679E-1,7.638561331E-2,2.390004192E-1
1.199521354E1,-4.073272750E-2,6.797914445E-2,7.079735622E-3,7.956407372E-2
1.200527654E1,-1.127147296E-1,-7.862575471E-2,-1.378358299E-1,1.946415566E-1
1.201533854E1,1.720513970E-2,-1.602523005E-1,-3.615684271E-2,1.651790965E-1
1.202540154E1,-2.801488727E-2,-1.256005311E-1,-6.749031723E-2,1.453109433E-1
1.203546454E1,1.479637921E-3,-6.192376792E-2,-6.615539789E-2,9.062714291E-2
1.204552754E1,9.153684542E-2,6.430183053E-2,1.644529402E-5,1.118647386E-1
1.205558954E1,2.821515441E-2,9.626738906E-2,4.422132254E-2,1.096313390E-1
1.206565254E1,-1.115632667E-1,4.626317024E-3,8.774792276E-2,1.420121939E-1
1.207571554E1,-1.912147692E-1,3.680763781E-2,-1.274774873E-1,2.327410577E-1
1.208577854E1,-2.378160547E-1,-4.883009791E-3,-2.372208081E-2,2.390461394E-1
1.209584154E1,-2.690355085E-1,1.964839876E-2,2.876045843E-1,3.943127709E-1
1.210590354E1,-4.204417026E-1,-4.748056054E-2,2.671300471E-1,5.003839436E-1
1.211596654E1,-5.438451424E-1,-3.752041340E-2,2.887045187E-1,6.168675867E-1
1.212602954E1,-6.051144607E-1,2.391803563E-2,3.083446582E-1,6.795675178E-1
1.213609254E1,-5.763692562E-1,-1.023262739E-2,3.100169619E-1,6.545355169E-1
1.214615454E1,-5.416180842E-1,-1.020099396E-1,3.318522193E-1,6.433366711E-1
1.215621754E1,-5.044369555E-1,-1.596588081E-1,2.497784346E-1,5.850955849E-1
1.216628054E1,-5.411649249E-1,-4.292704135E-1,3.497259881E-1,7.742356429E-1
1.217634354E1,-3.916294013E-1,-5.720576656E-1,1.544231381E-1,7.102605623E-1
1.218640554E1,3.326159388E-2,-2.705424821E-1,-2.672411442E-1,3.817294820E-1
1.219646854E1,2.895830628E-1,-7.605005622E-2,-3.170921659E-1,4.361071004E-1
1.220653154E1,6.314330707E-1,2.229239273E-1,-2.634873048E-1,7.196029183E-1
1.221659454E1,8.044425340E-1,1.569480389E-1,-7.380245961E-2,8.229260480E-1
1.222665654E1,1.018047461E0,4.138834655E-2,1.173161229E-1,1.025620155E0
1.223671954E1,7.472253361E-1,-2.711704731E-1,3.094931245E-1,8.530328965E-1
1.224678254E1,4.530346674E-1,-2.025633377E-1,-1.475211579E-1,5.177207815E-1
1.225684554E1,4.104089038E-1,-1.886726922E-1,-8.052207253E-1,9.232622973E-1
1.226690854E1,7.350429547E-1,6.878664494E-3,-1.033344508E0,1.268123154E0
1.227697054E1,1.110421628E0,3.609392667E-1,-7.686971891E-1,1.397930154E0
1.228703354E1,1.039245080E0,3.713139814E-1,-4.126211248E-1,1.178202275E0
1.229709654E1,6.955096373E-1,2.368134034E-1,-2.610466039E-1,7.797176239E-1
1.230715954E1,3.622388104E-1,3.460850000E-2,-3.031506497E-1,4.736190668E-1
1.231722154E1,1.688715349E-1,-9.565577030E-2,-4.854733387E-1,5.228307416E-1
1.232728454E1,1.805371687E-2,-2.172047657E-1,-6.059223267E-1,6.439298975E-1
1.233734754E1,-4.024945512E-2,-2.914877933E-1,-7.058834019E-1,7.647591316E-1
1.234741054E1,-4.457961068E-2,-2.510180444E-1,-7.184671947E-1,7.623598298E-1
1.235747254E1,-5.891537547E-2,-1.731085736E-1,-6.254100001E-1,6.515944045E-1
1.236753554E1,-1.515219690E-1,-1.278002536E-1,-4.361969521E-1,4.791237762E-1
1.237759854E1,-2.359260884E-1,-1.258735961E-1,-2.626066411E-1,3.747899803E-1
1.238766154E1,-2.967678291E-1,-2.505882740E-2,-1.982264578E-1,3.577608388E-1
1.239772354E1,-3.399194035E-1,1.378007466E-1,-2.560606831E-1,4.473268604E-1
1.240778654E1,-3.267356864E-1,2.659278595E-1,-4.215526736E-1,5.959702105E-1
1.241784954E1,-2.853607884E-1,3.279679871E-1,-5.364270723E-1,6.904692491E-1
1.242791254E1,-1.906170376E-1,3.161414087E-1,-4.776234517E-1,6.036591811E-1
1.243797554E1,-2.263208672E-2,2.558110070E-1,-2.859873541E-1,3.843699382E-1
1.244803754E1,3.935738929E-1,2.041561192E-1,-1.962629994E-1,4.848703900E-1
1.245810054E1,2.740139741E-1,-2.527108133E-2,-4.053991556E-1,4.899701633E-1
1.246816354E1,1.781889269E-1,-1.344274879E-3,-2.301154178E-1,2.910433065E-1
1.247822654E1,3.630039185E-1,5.232322454E-2,-1.478234589E-1,3.954255173E-1
1.248828854E1,4.826183626E-1,4.292674899E-2,-1.149433959E-1,4.979710573E-1
1.249835154E1,5.120045681E-1,3.719589293E-2,-9.087395389E-2,5.213351012E-1
1.250841454E1,4.883145739E-1,-1.353922784E-2,-1.147194840E-1,5.017917833E-1
1.251847754E1,4.267308216E-1,-8.415020406E-2,-1.000663616E-1,4.463112453E-1
1.252853954E1,3.358561733E-1,-1.662854576E-1,-3.098614991E-2,3.760456941E-1
1.253860254E1,2.647006752E-1,-1.952250820E-1,-6.223896939E-2,3.347431394E-1
1.254866554E1,2.161860345E-1,-2.301271123E-1,-8.147104640E-2,3.260865234E-1
1.255872854E1,2.195195322E-1,-2.098004365E-1,-1.590016176E-1,3.427631289E-1
1.256879054E1,2.643568589E-1,-1.564539492E-1,-2.317883428E-1,3.848223264E-1
1.257885354E1,3.331562215E-1,-8.284393609E-2,-2.676773465E-1,4.353244164E-1
1.258891654E1,3.442154990E-1,-4.412308931E-3,-2.741759785E-1,4.400866340E-1
1.259897954E1,2.833543164E-1,-3.437695026E-2,-2.177386165E-1,3.590007638E-1
1.260904254E1,2.392673336E-1,-5.579997897E-2,-1.636004527E-1,2.951738517E-1
1.261910454E1,2.274137118E-1,-1.230458826E-1,-2.090367901E-1,3.324961130E-1
1.262916754E1,2.629263376E-1,-2.051618403E-1,-3.139089783E-1,4.579961641E-1
1.263923054E1,3.220482659E-1,-2.198512155E-1,-4.374465752E-1,5.860112189E-1
1.264929354E1,2.890901425E-1,-1.676577991E-1,-6.006762779E-1,6.873821637E-1
1.265935554E1,9.854634136E-2,-1.088084972E-1,-7.121148527E-1,7.270888762E-1
1.266941854E1,-1.358292116E-1,-7.477302432E-2,-8.240352380E-1,8.384954701E-1
1.267948154E1,-3.110780123E-1,-8.546290398E-3,-8.326277214E-1,8.888821583E-1
1.268954454E1,-4.919635288E-1,1.520042181E-2,-7.001122731E-1,8.558132749E-1
1.269960654E1,-6.174094011E-1,2.963602781E-2,-5.801180158E-1,8.477084257E-1
1.270966954E1,-5.916892536E-1,1.918009526E-1,-5.223551631E-1,8.122430022E-1
1.271973254E1,-4.559217301E-1,2.076586014E-1,-6.782243907E-1,8.431933603E-1
1.272979554E1,-8.699735954E-2,3.573753887E-1,-7.398072660E-1,8.261964051E-1
1.273985754E1,2.603655495E-1,5.999594092E-1,-8.322131538E-1,1.058451815E0
1.274992054E1,6.208566271E-1,1.019494209E0,-8.075671399E-1,1.441178711E0
1.275998354E1,9.183750924E-1,1.333106697E0,-5.645890170E-1,1.714452400E0
1.277004654E1,1.139405838E0,1.240963349E0,-2.965842082E-1,1.710613308E0
1.278010954E1,1.355924871E0,8.311349273E-1,-1.158976614E-1,1.594600198E0
1.279017154E1,1.590635762E0,5.136387187E-1,-8.067346791E-2,1.673456025E0
1.280023454E1,1.640394836E0,5.275556767E-1,-3.952647614E-1,1.767892656E0
1.281029754E1,1.717421231E0,1.264680240E0,-1.008407303E0,2.359202637E0
1.282036054E1,1.025421677E0,-1.972183979E-1,-7.846138948E-1,1.306140757E0
1.283042646E1,8.203963695E-1,-8.811362225E-1,-1.136034479E0,1.655302263E0
1.284048946E1,1.401810896E0,-3.297139657E-1,-1.900874260E0,2.384765825E0
1.285055246E1,1.861941890E0,2.069680452E-2,-2.206175516E0,2.886947586E0
1.286061546E1,1.925764103E0,7.618278801E-2,-2.220497686E0,2.940234883E0
1.287067746E1,1.412509546E0,-7.940869689E-2,-1.903893178E0,2.371981912E0
1.288074046E1,7.262953739E-1,-3.279972231E-1,-1.641835005E0,1.825023105E0
1.289080346E1,4.354421496E-3,-1.857028913E-1,-1.288748549E0,1.302066568E0
1.290086646E1,-1.132768371E0,-1.979633331E-1,-9.999965950E-1,1.523924819E0
1.291092946E1,-2.315447697E0,-6.942147714E-1,-7.839239234E-1,2.541214061E0
1.292099146E1,-2.888500266E0,-1.155080615E0,-7.185655010E-1,3.192801496E0
1.293105446E1,-2.710998972E0,-1.411527214E0,-8.597359248E-1,3.175070135E0
1.294111746E1,-1.871944576E0,-1.587358251E0,-1.235119057E0,2.747617477E0
1.295118046E1,-7.904565789E-1,-1.795296350E0,-1.483814587E0,2.459596779E0
1.296124246E1,1.105975990E-1,-1.947098254E0,-1.661141342E0,2.561798977E0
1.297130546E1,6.801147956E-1,-1.941248115E0,-1.746237625E0,2.698211671E0
1.298136846E1,1.062160903E0,-1.718116027E0,-1.594313514E0,2.573313826E0
1.299143146E1,1.395137176E0,-1.279215249E0,-1.483321082E0,2.404795381E0
1.300149346E1,1.767750555E0,-4.793073767E-1,-1.278855060E0,2.233863884E0
1.301155646E1,2.083369661E0,3.793872321E-1,-1.013634714E0,2.347726379E0
1.302161946E1,2.092512806E0,1.084874851E0,-6.307579366E-1,2.439962881E0
1.303168246E1,2.090686136E0,1.217735869E0,-4.969531772E-1,2.469982111E0
1.304174546E1,2.400330557E0,1.456021017E0,1.635185552E-1,2.812173946E0
1.305180746E1,2.466916310E0,1.721945368E0,6.413425664E-1,3.076051401E0
1.306187046E1,2.150008916E0,1.843989038E0,8.611288047E-1,2.960469005E0
1.307193346E1,1.630939888E0,1.559400959E0,8.078197396E-1,2.396720468E0
1.308199646E1,1.297409299E0,1.246891841E0,6.986200637E-1,1.930305713E0
1.309205846E1,9.322150134E-1,7.674844766E-1,4.236523722E-1,1.279663466E0
1.310212146E1,7.377771127E-1,3.821003401E-1,-5.009192705E-2,8.323610630E-1
1.311218446E1,5.815642150E-1,4.320332229E-2,-4.782952603E-1,7.542213330E-1
1.312224746E1,4.759104368E-1,-1.986503810E-1,-5.698006403E-1,7.685216246E-1
1.313230946E1,2.782948668E-1,-6.481615162E-1,-3.807941818E-1,8.016018917E-1
1.314237246E1,6.854734764E-2,-1.095750087E0,-7.264993686E-2,1.100293145E0
1.315243546E1,-1.233879447E-1,-1.148094946E0,1.548505696E-1,1.165043042E0
1.316249846E1,-2.717282975E-1,-8.406074166E-1,3.452674862E-1,9.485076350E-1
1.317256046E1,-4.747380701E-1,-1.706965971E-1,7.107857805E-1,8.716249132E-1
1.318262346E1,-6.551512778E-1,6.757662213E-1,1.100289280E0,1.447936353E0
1.319268646E1,-9.132830447E-1,1.587374623E0,1.480878700E0,2.355174269E0
1.320274946E1,-1.215632333E0,2.043024166E0,1.603956742E0,2.867819196E0
1.321281246E1,-1.321770407E0,2.005081583E0,1.681090872E0,2.931466474E0
1.322287446E1,-8.454679146E-1,1.594098337E0,1.563587565E0,2.387628861E0
1.323293746E1,9.356626779E-2,1.146680505E0,1.666119661E0,2.024743330E0
1.324300046E1,9.533370566E-1,6.275225991E-1,1.873196465E0,2.193513426E0
1.325306346E1,1.692052063E0,1.223570806E-1,1.748108150E0,2.435958444E0
1.326312546E1,2.275478177E0,-3.698720580E-1,9.985009503E-1,2.512291867E0
1.327318846E1,2.618113028E0,-4.352240485E-1,9.404310822E-2,2.655707044E0
1.328325146E1,2.984277074E0,8.317313433E-2,-7.702420235E-2,2.986429332E0
1.329331446E1,2.902492653E0,4.764159286E-1,1.563978159E-1,2.945487399E0
1.330337646E1,2.439273891E0,5.070342886E-1,3.674811316E-1,2.518369168E0
1.331343946E1,1.495641165E0,2.902259642E-1,7.715716803E-1,1.707775297E0
1.332350246E1,4.567508653E-1,-1.031156480E-2,9.216509950E-1,1.028673047E0
1.333356546E1,-2.577736250E-1,-2.345382518E-1,8.713052988E-1,9.384180076E-1
1.334362746E1,-4.108437905E-1,-5.761787832E-1,8.216156602E-1,1.084355524E0
1.335369046E1,-3.397530502E-1,-7.804547703E-1,4.516225648E-1,9.635895001E-1
1.336375346E1,-3.574636817E-1,-8.880277508E-1,4.592987895E-2,9.583752521E-1
1.337381646E1,-5.906067878E-1,-8.351016784E-1,2.316316009E-2,1.023106897E0
1.338387846E1,-6.700558305E-1,-6.735080266E-1,2.415502328E-1,9.802726115E-1
1.339394146E1,-7.238876367E-1,-5.371608979E-1,5.011408800E-1,1.031357029E0
1.340400446E1,-7.238048986E-1,-4.831782335E-1,6.176232630E-1,1.067151925E0
1.341406746E1,-7.490569764E-1,-5.837333858E-1,7.682241493E-1,1.221474258E0
1.342413046E1,-9.830277559E-1,-6.659926003E-1,8.254432476E-1,1.446114196E0
1.343419246E1,-1.074603924E0,-7.217493099E-1,5.294922745E-1,1.398591337E0
1.344425546E1,-9.613939351E-1,-4.569154644E-1,1.414365178E-1,1.073803673E0
1.345431846E1,-4.135270777E-1,-1.069918258E0,-1.855496943E-1,1.161963171E0
1.346438146E1,4.733259675E-1,-1.991679180E0,1.452972790E-2,2.047201637E0
1.347444346E1,5.710232931E-1,-1.945292634E0,2.569079447E-1,2.043583305E0
1.348450646E1,4.510170856E-1,-1.525515175E0,9.879221678E-2,1.593854718E0
1.349456946E1,-1.592992043E-1,-8.585396576E-1,-2.362088013E-1,9.045779004E-1
1.350463246E1,-1.052932096E0,-2.656688279E-1,-6.209538370E-1,1.250931490E0
1.351469446E1,-1.682625182E0,-8.680951774E-2,-9.002267969E-1,1.910280524E0
1.352475746E1,-1.350698630E0,-9.578037447E-1,-1.000449243E0,1.934599051E0
1.353482046E1,-8.352835268E-2,-2.000148287E0,-6.388597655E-1,2.101359550E0
1.354488346E1,1.122682655E0,-2.811600902E0,-3.224786576E-1,3.044586747E0
1.355494546E1,1.866749032E0,-3.024135497E0,-2.018552399E-1,3.559619782E0
1.356500846E1,1.845664850E0,-2.975500696E0,-1.993772264E-1,3.507111975E0
1.357507146E1,1.285242851E0,-2.813487799E0,-4.603384244E-1,3.127215094E0
1.358513446E1,4.353906941E-1,-2.371671599E0,-9.362666953E-1,2.586694136E0
1.359519646E1,-2.357155886E-1,-1.408176759E0,-9.505736625E-1,1.715259139E0
1.360525946E1,6.824723929E-2,-2.953370154E-1,-5.427701318E-1,6.216760043E-1
1.361532246E1,7.163040903E-1,4.134501868E-1,2.878917557E-1,8.757364157E-1
1.362538546E1,1.237985069E0,7.981431824E-1,5.402324402E-1,1.568913848E0
1.363544746E1,1.800565860E0,2.768054348E-1,-4.954170406E-1,1.887881540E0
1.364551046E1,2.856064592E0,5.511994779E-2,-1.434758202E0,3.196666116E0
1.365557346E1,3.923667644E0,-1.329721159E-1,-1.816683710E0,4.325874370E0
1.366563646E1,4.461904137E0,-4.040887946E-1,-1.440114251E0,4.705932994E0
1.367569946E1,4.225772812E0,-5.227773321E-1,-9.890810859E-1,4.371353725E0
1.368576146E1,3.690737377E0,9.228075743E-3,-1.285238466E0,3.908128127E0
1.369582446E1,3.578894759E0,6.881512088E-1,-1.347924711E0,3.885735556E0
1.370588746E1,4.068852255E0,9.667622638E-1,-9.171825528E-1,4.281519798E0
1.371595046E1,4.696173417E0,7.240636379E-1,-5.118535638E-1,4.779153376E0
1.372601246E1,4.705225492E0,-3.629337519E-1,1.674736118E-1,4.722172725E0
1.373607546E1,4.247509544E0,-1.971382325E0,9.134578764E-1,4.770963308E0
1.374613846E1,3.369363295E0,-3.155765092E0,1.405404010E0,4.825621489E0
1.375620146E1,2.223994321E0,-3.040693642E0,9.267263782E-1,3.879534810E0
1.376626346E1,1.310525334E0,-2.357921872E0,4.123971033E-1,2.728982150E0
1.377632646E1,1.007185820E0,-1.740426663E0,1.108246537E-1,2.013899289E0
1.378638946E1,9.296125638E-1,-6.568381995E-1,-1.339807606E-1,1.146109412E0
1.379645246E1,1.106258411E0,5.463568139E-1,-7.633212590E-1,1.450852433E0
1.380651446E1,1.498527059E0,1.443633690E0,-1.083765049E0,2.346104912E0
1.381657746E1,2.015144349E0,2.046167629E0,-5.028640544E-1,2.915558432E0
1.382664046E1,2.013210090E0,3.484017838E0,1.462291571E0,4.281318933E0
1.383669954E1,1.710046284E0,4.670468765E0,2.835501981E0,5.725173208E0
1.384676154E1,1.409959576E0,5.327478288E0,2.744977727E0,6.156696649E0
1.385682454E1,1.706404638E-1,4.608671297E0,1.946722863E0,5.005866478E0
1.386688754E1,-1.326884967E0,1.504893799E0,6.041027462E-1,2.095296922E0
1.387695054E1,-2.092391330E0,-1.207747071E0,1.208537797E-1,2.418958475E0
1.388701254E1,-2.223809256E0,-2.835915964E0,-6.494794786E-1,3.661908048E0
1.389707554E1,-2.418611000E0,-3.701339548E0,-1.165406798E0,4.572501134E0
1.390713854E1,-2.524622481E0,-2.414841592E0,-1.283678429E0,3.721963044E0
1.391720154E1,-2.303036397E0,-2.391125286E-1,-1.198592670E0,2.607254463E0
1.392726354E1,-2.171775761E0,1.889887342E0,9.274970412E-2,2.880431674E0
1.393732654E1,-2.007777734E0,3.370922747E0,9.615921557E-1,4.039672149E0
1.394738954E1,-1.857747536E0,3.501382315E0,9.496088719E-1,4.075863225E0
1.395745254E1,-2.004455639E0,2.729889572E0,5.460351805E-1,3.430494702E0
1.396751454E1,-2.190865166E0,1.877766649E0,-4.061014062E-1,2.913900498E0
1.397757754E1,-2.201565278E0,1.007671723E0,-1.224504021E0,2.713245672E0
1.398764054E1,-2.152728164E0,3.089376390E-1,-1.387635491E0,2.579770003E0
1.399770354E1,-1.971228544E0,1.980013400E-1,-9.148028091E-1,2.182157346E0
1.400776554E1,-1.626035244E0,5.032078707E-1,-4.153288972E-1,1.752057895E0
1.401782854E1,-1.360180767E0,1.012636009E0,-1.557926291E-1,1.702878372E0
1.402789154E1,-1.393033933E0,1.344331596E0,2.614052575E-2,1.936092536E0
1.403795454E1,-1.576105577E0,1.252937277E0,-1.115637052E-1,2.016533429E0
1.404801654E1,-1.664615173E0,7.651894444E-1,-3.342046638E-1,1.862297322E0
1.405807954E1,-1.488100304E0,3.446126711E-1,-2.183537070E-1,1.543009640E0
1.406814254E1,-1.189019024E0,5.363417029E-2,1.063573078E-1,1.194970602E0
1.407820554E1,-7.765181324E-1,-2.203067136E-1,2.012611628E-3,8.071675840E-1
1.408826854E1,-3.412253791E-1,-4.968016613E-1,-6.143540847E-1,8.606262786E-1
1.409833054E1,-5.528074622E-2,-9.328261936E-1,-3.349285126E-1,9.926720389E-1
1.410839354E1,8.507464886E-2,-1.370677396E0,1.558528189E-1,1.382130356E0
1.411845654E1,2.999301495E-1,-1.707562972E0,1.137107845E-1,1.737429003E0
1.412851954E1,-8.061103061E-2,-2.057743946E0,1.157900544E-1,2.062574998E0
1.413858154E1,-2.400030595E-1,-2.067005936E0,1.269524074E-1,2.084761838E0
1.414864454E1,-4.759998992E-2,-1.849451507E0,1.766086986E-1,1.858474446E0
1.415870754E1,3.262804806E-2,-1.574081563E0,2.390610182E-1,1.592465864E0
1.416877054E1,-1.097050215E-1,-1.275099978E0,3.551902843E-1,1.328184959E0
1.417883254E1,-3.915199122E-1,-9.984307837E-1,2.796617997E-1,1.108315205E0
1.418889554E1,-6.599439481E-1,-7.482132232E-1,1.492103819E-1,1.008767952E0
1.419895854E1,-8.240573113E-1,-5.592616189E-1,2.494784359E-1,1.026685687E0
1.420902154E1,-8.287760143E-1,-5.687130582E-1,1.290725712E-1,1.013392300E0
1.421908454E1,-7.570023192E-1,-7.745011353E-1,-9.117099244E-2,1.086837923E0
1.422914654E1,-6.120549595E-1,-9.971946824E-1,-3.727617520E-1,1.227990159E0
1.423920954E1,-3.643372299E-1,-1.104753045E0,-6.119263939E-1,1.314410445E0
1.424927254E1,-5.412826002E-2,-1.132873474E0,-8.242387942E-1,1.402034867E0
1.425933554E1,3.243973848E-1,-1.068793838E0,-9.935232157E-1,1.494872005E0
1.426939754E1,6.744317405E-1,-9.155774921E-1,-1.244383385E0,1.685713595E0
1.427946054E1,8.884718469E-1,-7.275134951E-1,-1.379303209E0,1.794752197E0
1.428952354E1,1.062353276E0,-6.388480711E-1,-1.561314168E0,1.993595564E0
1.429958654E1,1.348541153E0,-6.341042250E-1,-1.559625492E0,2.157100620E0
1.430964854E1,1.671874783E0,-7.625201905E-1,-1.324834056E0,2.265344920E0
1.431971154E1,1.904011437E0,-9.407327986E-1,-1.029321697E0,2.360029853E0
1.432977454E1,1.900523866E0,-1.212055299E0,-7.860085288E-1,2.387232377E0
1.433983754E1,1.656618374E0,-1.389917659E0,-8.492502592E-1,2.323248058E0
1.434989954E1,1.469784632E0,-1.063710269E0,-1.448050092E0,2.321334846E0
1.435996254E1,1.200896327E0,-3.848836148E-1,-2.427679739E0,2.735674743E0
1.437002554E1,5.463540365E-1,3.566848326E-1,-3.747275859E0,3.803656552E0
1.438008854E1,-1.719473165E-1,1.188898571E0,-4.924344928E0,5.068749221E0
1.439015154E1,-4.469216958E-1,1.839849794E0,-5.474346896E0,5.792517605E0
1.440021354E1,1.181779294E-1,2.116991444E0,-5.148416079E0,5.567926627E0
1.441027654E1,1.203235213E0,2.023862840E0,-3.961155313E0,4.608095831E0
1.442033954E1,2.191111334E0,1.465974147E0,-2.414545723E0,3.574923793E0
1.443040254E1,3.004615444E0,8.071946722E-1,-1.582573475E0,3.490532339E0
1.444046454E1,3.529962920E0,3.245964825E-1,-9.445445254E-1,3.668537236E0
1.445052754E1,3.713507604E0,1.505774975E-1,-2.566144145E-1,3.725407799E0
1.446059054E1,3.923272957E0,3.994618928E-1,6.556306764E-1,3.997685841E0
1.447065354E1,4.130262637E0,1.091176980E0,1.737264488E0,4.611705168E0
1.448071554E1,3.654171229E0,1.770538069E0,2.890630699E0,4.984327263E0
1.449077854E1,2.454402099E0,2.483292607E0,4.106369160E0,5.390092718E0
1.450084154E1,8.536950932E-1,3.315493482E0,4.355050657E0,5.539653289E0
1.451090454E1,-7.850576985E-1,3.924825393E0,3.302486351E0,5.189121896E0
1.452096654E1,-1.622821614E0,4.208162752E0,1.803442690E0,4.857426199E0
1.453102954E1,-1.529495667E0,3.851410092E0,9.229537547E-1,4.245534163E0
1.454109254E1,-5.951255161E-1,3.262091446E0,5.572466683E-1,3.362430495E0
1.455115554E1,6.112157379E-1,3.210553502E0,8.840990067E-1,3.385685975E0
1.456121854E1,1.402634330E0,3.438815353E0,1.763117952E0,4.111133543E0
1.457128054E1,1.510587087E0,3.456428336E0,2.680846635E0,4.627710975E0
1.458134354E1,1.303418921E0,3.172002810E0,3.256830121E0,4.729423342E0
1.459140654E1,1.495811027E0,2.964106811E0,2.470595963E0,4.138505072E0
1.460146954E1,1.695788726E0,2.694159576E0,-2.575511384E-1,3.193826516E0
1.461153154E1,6.656066841E-1,2.011689522E0,7.249372119E0,7.552703033E0
1.462159454E1,5.209424758E-1,1.111776136E0,6.119023472E0,6.240983536E0
1.463165754E1,2.876350629E-1,6.871770626E-1,2.360193515E0,2.474966600E0
1.464172054E1,-6.172329614E-1,2.267252022E-1,7.900056124E-1,1.027856855E0
1.465178254E1,-1.527016155E0,1.437549663E-1,-2.707798791E-1,1.557486941E0
1.466184554E1,-2.025965791E0,-2.726755464E-1,-1.130301869E0,2.335909171E0
1.467190854E1,-2.053225803E0,-6.642366815E-1,-1.025681148E0,2.389344760E0
1.468197154E1,-2.306460234E0,-7.258458692E-1,-4.971372549E-1,2.468553521E0
1.469203354E1,-2.652414549E0,-1.086141357E0,-4.524494342E-1,2.901674771E0
1.470209654E1,-2.695060339E0,-1.816796561E0,-5.371896223E-1,3.294339489E0
1.471215954E1,-2.294766095E0,-2.403664055E0,-2.429600696E-1,3.332053708E0
1.472222254E1,-2.059501912E0,-2.898293476E0,5.572898646E-1,3.598920003E0
1.473228454E1,-2.139952290E0,-2.818043364E0,9.998762155E-1,3.677025517E0
1.474234754E1,-2.394064681E0,-1.775908737E0,1.212817776E0,3.218124375E0
1.475241054E1,-2.793386533E0,-1.055814773E0,1.104284098E0,3.183896438E0
1.476247354E1,-3.056250159E0,-9.252727604E-1,1.990006292E-1,3.199436820E0
1.477253554E1,-2.807632689E0,-1.384190311E0,-9.570336664E-1,3.273331266E0
1.478259854E1,-1.915125971E0,-2.198075953E0,-1.356471001E0,3.215471809E0
1.479266154E1,-4.054795548E-1,-3.075716709E0,-1.351484495E0,3.383926312E0
1.480272454E1,1.459823169E0,-3.355518842E0,-1.438033812E0,3.931733922E0
1.481278754E1,3.159954329E0,-3.174991322E0,-1.694113791E0,4.789144265E0
1.482284954E1,4.391812979E0,-2.981026314E0,-1.441172597E0,5.500137960E0
1.483291304E1,5.280697639E0,-2.963421518E0,-6.667650175E-1,6.091979172E0
1.484297604E1,5.444113283E0,-3.932254865E0,-8.094709933E-1,6.764335965E0
1.485303904E1,4.692498442E0,-5.583834840E0,-1.406529014E0,7.428127423E0
1.486310104E1,3.075470834E0,-7.311712793E0,-1.783974386E0,8.130327757E0
1.487316404E1,6.752586830E-1,-8.181887240E0,-1.133325464E0,8.287561747E0
1.488322704E1,-1.504078990E0,-7.271876298E0,-3.508984280E-1,7.434081531E0
1.489329004E1,-2.863936698E0,-5.138901490E0,-7.644813466E-1,5.932526752E0
1.490335204E1,-3.307946773E0,-2.568576586E0,-1.910456677E0,4.603253441E0
1.491341504E1,-2.199151548E0,-2.233852726E-1,-2.429658437E0,3.284723524E0
1.492347804E1,-1.868290651E-1,1.968492631E0,-2.050995675E0,2.848938679E0
1.493354104E1,2.065877131E0,3.641157081E0,-1.914039266E-1,4.190764688E0
1.494360304E1,4.893929467E0,5.061694270E0,3.295890691E0,7.773943012E0
1.495366604E1,8.018726535E0,5.626885550E0,5.691232989E0,1.132925192E1
1.496372904E1,9.214124871E0,5.458820785E0,5.573280616E0,1.207312214E1
1.497379204E1,8.596500438E0,7.197614905E0,4.088243376E0,1.193395215E1
1.498385404E1,6.708703476E0,9.467678268E0,3.328721638E0,1.207162052E1
1.499391704E1,2.337555727E0,4.706518019E0,-1.083416555E0,5.365563351E0
1.500398004E1,-2.213159430E0,-1.428443209E0,-2.067026986E0,3.348301842E0
1.501404304E1,-3.124142472E0,-2.896732854E0,1.242813627E-1,4.262249790E0
1.502410504E1,-3.201205266E0,-6.593068939E-1,9.498065078E-1,3.403605903E0
1.503416804E1,-4.116466717E0,2.423255736E0,2.545694093E0,5.412765005E0
1.504423104E1,-4.894491092E0,4.413325177E0,4.499797311E0,7.980078822E0
1.505429404E1,-5.211208159E0,5.901126981E0,3.667357285E0,8.685015807E0
1.506435604E1,-5.175794497E0,6.432939430E0,1.188586915E0,8.341720281E0
1.507441904E1,-3.972577849E0,5.456475466E0,-3.623496151E-1,6.759126906E0
1.508448204E1,-3.022864604E0,3.652001327E0,-2.335413015E-1,4.746510892E0
1.509454504E1,-2.680473583E0,2.513150244E0,-1.428123951E-2,3.674379775E0
1.510460704E1,-2.750302494E0,2.119936686E0,-1.867331707E-1,3.477522773E0
1.511467004E1,-2.730893246E0,1.799395248E0,-4.321360974E-1,3.298839612E0
1.512473304E1,-2.704052480E0,1.235216705E0,-5.651498016E-1,3.026062528E0
1.513479604E1,-2.739372878E0,6.913490510E-1,-7.249529994E-1,2.916793467E0
1.514485904E1,-2.648665022E0,1.320733988E-1,-9.425922132E-1,2.814489272E0
1.515492104E1,-2.103305158E0,-4.869678140E-1,-1.039287034E0,2.396069235E0
1.516498404E1,-1.577042593E0,-8.600915086E-1,-8.179570574E-1,1.973796973E0
1.517504704E1,-1.107214430E0,-1.023480840E0,-3.799245912E-1,1.554921066E0
1.518511004E1,-7.522197354E-1,-1.179245403E0,-1.808099413E-1,1.410371045E0
1.519517204E1,-8.313647228E-1,-1.332898536E0,-5.940131564E-2,1.572041452E0
1.520523504E1,-1.149749123E0,-1.671160546E0,6.531219285E-2,2.029523663E0
1.521529804E1,-1.446416088E0,-2.139090410E0,1.157163978E-1,2.584805132E0
1.522536104E1,-1.478034030E0,-2.631876789E0,6.969296336E-2,3.019307393E0
1.523542304E1,-8.994058478E-1,-2.829149566E0,1.564621353E-1,2.972793054E0
1.524548604E1,-4.080660707E-1,-2.949126830E0,5.644703186E-1,3.030262978E0
1.525554904E1,-2.218356143E-1,-2.933817649E0,8.062491775E-1,3.050661367E0
1.526561204E1,-4.402544081E-1,-2.880590445E0,1.026282241E0,3.089479001E0
1.527567404E1,-8.066454725E-1,-2.736464766E0,1.246007742E0,3.113109639E0
1.528573704E1,-7.153685358E-1,-2.485427426E0,1.068483351E0,2.798349210E0
1.529580004E1,-2.917595427E-1,-2.164117663E0,3.311114137E-1,2.208656528E0
1.530586304E1,1.032830246E-1,-1.792394961E0,-3.369306723E-1,1.826709982E0
1.531592504E1,5.721950752E-1,-1.306713535E0,-9.625405741E-1,1.720869496E0
1.532598804E1,1.091020713E0,-8.323359454E-1,-1.315297247E0,1.900819868E0
1.533605104E1,1.574062414E0,-5.963744813E-1,-1.822301715E0,2.480749593E0
1.534611404E1,1.722900365E0,-5.125330102E-1,-2.114494683E0,2.775277196E0
1.535617704E1,1.434687743E0,-6.408700383E-1,-2.173033497E0,2.681625982E0
1.536623904E1,1.172791100E0,-7.942191160E-1,-2.444201632E0,2.824950368E0
1.537630204E1,1.015175163E0,-8.210040414E-1,-2.734293110E0,3.030014366E0
1.538636504E1,9.666464889E-1,-8.470685899E-1,-3.056511530E0,3.315749291E0
1.539642804E1,1.008905486E0,-8.881680840E-1,-3.365086641E0,3.623608827E0
1.540649004E1,1.180999568E0,-7.315100670E-1,-3.419928846E0,3.691311457E0
1.541655304E1,1.275402133E0,-5.372737491E-1,-3.067613053E0,3.365347460E0
1.542661604E1,1.050547017E0,-3.478017426E-1,-2.663859304E0,2.884573015E0
1.543667904E1,6.235543862E-1,-6.396970868E-2,-2.386165677E0,2.467123596E0
1.544674104E1,5.364507535E-1,5.407148355E-1,-2.468128730E0,2.582984974E0
1.545680404E1,9.424415012E-1,9.691052431E-1,-3.030626491E0,3.318442087E0
1.546686704E1,1.390414234E0,5.255237693E-1,-3.576991491E0,3.873537801E0
1.547693004E1,1.593594453E0,-2.449866414E-2,-4.016077040E0,4.320765934E0
1.548699204E1,1.671246500E0,3.496143794E-1,-4.948125554E0,5.234428486E0
1.549705504E1,1.394323390E0,1.474271346E0,-5.967139122E0,6.302726634E0
1.550711804E1,8.516618702E-1,2.470709399E0,-6.693928732E0,7.185987388E0
1.551718104E1,3.875364965E-1,2.953111707E0,-6.485098933E0,7.136354914E0
1.552724404E1,4.166434975E-1,2.700113211E0,-5.404379699E0,6.055701700E0
1.553730604E1,1.080891435E0,2.051610217E0,-4.219912148E0,4.815089751E0
1.554736904E1,1.921602932E0,1.083827029E0,-3.476156842E0,4.117147707E0
1.555743204E1,2.613176808E0,1.801953989E-1,-2.835558699E0,3.860253431E0
1.556749504E1,3.164127195E0,-1.047259712E-1,-2.459123726E0,4.008735204E0
1.557755704E1,3.341389630E0,-2.276788831E-2,-1.853627150E0,3.821169539E0
1.558762004E1,3.479892335E0,6.238043547E-1,-6.134337330E-1,3.588186657E0
1.559768304E1,2.717024528E0,6.822613084E-1,1.779744949E0,3.318914711E0
1.560774604E1,1.848640936E0,9.076954454E-1,3.464230860E0,4.030171186E0
1.561780804E1,9.959233515E-1,1.966518611E0,2.818246263E0,3.577928279E0
1.562787104E1,-2.010468623E-1,3.724583985E0,1.473049863E0,4.010339337E0
1.563793404E1,-1.750489575E0,5.642657245E0,9.189576944E-1,5.978986350E0
1.564799704E1,-2.910290500E0,6.669179807E0,2.121246316E-1,7.279611731E0
1.565806004E1,-3.091787197E0,6.568905905E0,-5.824412242E-1,7.283468312E0
1.566812204E1,-2.279675309E0,6.460561677E0,-7.122236109E-1,6.887890764E0
1.567818504E1,-1.676179211E0,6.640101603E0,2.623990649E-1,6.853420994E0
1.568824804E1,-1.194098208E0,6.087459033E0,2.305508015E0,6.618035601E0
1.569831104E1,-2.905996013E-1,4.878357747E0,3.550875487E0,6.040822722E0
1.570837304E1,6.933850515E-1,3.638829305E0,3.732366044E0,5.258556629E0
1.571843604E1,8.834388560E-1,2.426406800E0,3.658851925E0,4.478293378E0
1.572849904E1,5.423324677E-1,1.418715781E0,3.378680833E0,3.704370816E0
1.573856204E1,7.891055797E-1,9.958129853E-1,2.936060057E0,3.199184236E0
1.574862404E1,3.688328616E-1,1.113304013E-1,1.751372066E0,1.793247403E0
1.575868704E1,-2.670791763E-1,-8.668672621E-1,9.604203737E-1,1.321059208E0
1.576875004E1,-2.512501788E-1,-1.384269249E0,5.797865152E-1,1.521670269E0
1.577881304E1,-2.572464985E-1,-1.970853152E0,5.889578730E-1,2.072995245E0
1.578887504E1,-3.340175164E-1,-2.559943757E0,3.084312701E-1,2.600001844E0
1.579893804E1,-4.831475356E-1,-2.954617950E0,-5.618343937E-1,3.046121576E0
1.580900104E1,-3.485981333E-1,-3.371174762E0,-6.821829557E-1,3.457125037E0
1.581906404E1,-1.012825459E0,-3.703940974E0,-1.723104286E-1,3.843785249E0
1.582912604E1,-2.246403190E0,-4.022775611E0,-5.195251107E-1,4.636696803E0
1.583918817E1,-3.145758752E0,-4.458073919E0,-7.333624649E-1,5.505273989E0
1.584925117E1,-3.512795787E0,-4.724655497E0,-6.383896494E-1,5.921962948E0
1.585931417E1,-3.548713479E0,-4.947213973E0,-2.116411400E-1,6.092051003E0
1.586937617E1,-3.424501369E0,-5.104951971E0,9.402794201E-2,6.147892770E0
1.587943917E1,-3.630234775E0,-5.271575983E0,2.315742981E-1,6.404821974E0
1.588950217E1,-4.019879485E0,-5.010973767E0,4.311093263E-1,6.438566954E0
1.589956517E1,-4.296734036E0,-4.450757298E0,6.611177766E-1,6.221594700E0
1.590962717E1,-4.475991834E0,-3.938867481E0,7.923853561E-1,6.014736444E0
1.591969017E1,-4.419901541E0,-3.584572406E0,7.916322347E-1,5.745552241E0
1.592975317E1,-4.007742712E0,-3.246078846E0,8.540630293E-1,5.227662305E0
1.593981617E1,-3.219836834E0,-3.011653445E0,6.908706757E-1,4.462589832E0
1.594987817E1,-2.453361587E0,-2.959094578E0,2.651134886E-2,3.843946754E0
1.595994117E1,-1.773363444E0,-3.027719840E0,-5.639838302E-1,3.553868750E0
1.597000417E1,-8.217653489E-1,-3.148752526E0,-8.693662159E-1,3.368343566E0
1.598006717E1,2.573482400E-1,-3.168836542E0,-4.572405696E-1,3.211981022E0
1.599012917E1,1.189482708E0,-2.924862054E0,1.581087112E-2,3.157520725E0
1.600019217E1,1.988622548E0,-1.914195387E0,2.961872005E-1,2.776056641E0
1.601025517E1,3.215096497E0,-6.883149308E-1,-6.112714326E-1,3.344290013E0
1.602031817E1,4.769177659E0,1.362623441E0,-2.648170055E0,5.622686442E0
1.603038017E1,5.982991508E0,3.374333428E0,-3.063413583E0,7.521091427E0
1.604044317E1,5.596029793E0,3.888944539E0,-2.504567116E0,7.260323375E0
1.605050617E1,3.917695006E0,4.366391332E0,-3.117188087E0,6.643084298E0
1.606056917E1,2.534626483E0,3.806765431E0,-3.571303904E0,5.802586150E0
1.607063117E1,2.785398067E0,2.447342171E0,-2.572213554E0,4.512672009E0
1.608069417E1,4.967435399E0,8.850544417E-1,-1.443533703E0,5.248097309E0
1.609075717E1,7.585877041E0,-5.547195017E-1,-1.642980913E0,7.781557073E0
1.610082017E1,8.627648556E0,-1.118366532E0,-2.264469917E0,8.989710080E0
1.611088217E1,7.059190845E0,2.361637777E-1,-1.292087309E0,7.180350850E0
1.612094517E1,3.857374837E0,3.316563522E0,2.688315868E-2,5.087205218E0
1.613100817E1,-2.483300793E-1,6.633859701E0,1.627221644E-1,6.640500046E0
1.614107117E1,-4.585538542E0,8.882097162E0,2.099034644E0,1.021394929E1
1.615113317E1,-7.533777180E0,9.765934213E0,3.668220334E0,1.286806551E1
1.616119617E1,-7.502551879E0,8.081768875E0,2.078042117E0,1.122147637E1
1.617125917E1,-5.273848211E0,3.075371724E0,-7.045770608E-2,6.105436141E0
1.618132217E1,-3.878957202E0,-1.434937711E0,8.896468449E-1,4.230464126E0
1.619138417E1,-3.210289793E0,-3.342576615E0,2.121941696E0,5.097196832E0
1.620144717E1,-3.156145453E0,-1.930480467E0,3.754429343E0,5.271029183E0
1.621151017E1,-3.096419654E0,1.874990975E0,4.563362392E0,5.824747389E0
1.622157317E1,-1.728174992E0,6.273372424E0,3.011815413E0,7.170273527E0
1.623163617E1,-1.719113562E-1,9.089266351E0,3.024483991E0,9.580804754E0
1.624169817E1,3.965549496E-1,8.458421364E0,3.822504966E0,9.290516241E0
1.625176117E1,-4.624545318E-1,5.763622103E0,3.876779991E0,6.961510400E0
1.626182417E1,-2.013572617E0,2.871265306E0,1.969358604E0,4.022065695E0
1.627188717E1,-3.683133658E0,9.938500750E-1,-8.133500361E-1,3.900608900E0
1.628194917E1,-4.240317176E0,1.254987895E-1,-1.939058332E0,4.664331347E0
