"Time (s)","Linear Acceleration x (m/s^2)","Linear Acceleration y (m/s^2)","Linear Acceleration z (m/s^2)","Absolute acceleration (m/s^2)"
1.005858334E-2,-1.091432503E-1,2.500620246E-2,3.781262800E-2,1.181835610E-1
2.012058336E-2,-1.020394680E-1,2.436651707E-2,3.507613108E-2,1.106169750E-1
3.018258337E-2,-4.755628198E-2,1.443560600E-2,1.068768695E-2,5.083515840E-2
4.024558340E-2,-2.153821886E-2,1.607048750E-2,-5.829674006E-4,2.687927252E-2
5.030758341E-2,-2.086228073E-2,8.452734947E-3,1.705925167E-2,2.824361083E-2
6.036958343E-2,-2.962930351E-2,-2.124527335E-2,6.237999693E-2,7.225317490E-2
7.043258334E-2,-2.459514320E-2,-3.726313591E-2,9.184280097E-2,1.021203332E-1
8.049458335E-2,-3.192930579E-2,-5.202910960E-2,5.911593497E-2,8.497765931E-2
9.055758337E-2,-6.948831081E-2,-9.719066441E-2,1.124302626E-2,1.200044009E-1
1.006195834E-1,-1.075484222E-1,-4.444936395E-2,5.409843922E-3,1.164975343E-1
1.106815834E-1,-5.049099952E-2,1.606639445E-2,2.306068763E-2,5.778637709E-2
1.207445833E-1,6.678952843E-2,3.396179795E-2,1.351759315E-2,7.613783654E-2
1.308065833E-1,5.141369015E-2,3.384485364E-2,3.384792343E-2,7.024616412E-2
1.408685833E-1,2.168849230E-2,9.563705921E-3,6.767421216E-3,2.465062188E-2
1.509315834E-1,1.120501935E-2,2.745209277E-2,-4.743582934E-2,5.594039472E-2
1.609935834E-1,-1.146229684E-2,2.102132499E-2,-3.985593751E-2,4.649490411E-2
1.710565834E-1,-1.337609053E-2,2.057693660E-2,-4.593587235E-2,5.208103768E-2
1.811185834E-1,-4.095652968E-2,1.551792562E-2,-2.912922040E-2,5.259995076E-2
1.911805833E-1,-3.917780668E-2,1.512440801E-2,-2.026308730E-2,4.662875680E-2
2.012435833E-1,-7.396727800E-3,6.093091071E-2,-2.243459702E-2,6.534981718E-2
2.113055834E-1,4.391785204E-2,9.564349115E-2,4.657891989E-3,1.053477626E-1
2.213675834E-1,6.534205019E-2,5.305354178E-2,4.206179962E-2,9.409280953E-2
2.314305834E-1,7.927801162E-2,-5.919311821E-2,7.223591745E-2,1.225024740E-1
2.414925834E-1,-8.390169740E-3,-1.762806880E-1,3.612658337E-2,1.801399621E-1
2.515555833E-1,-1.014787200E-1,-1.868337429E-1,9.058798850E-4,2.126160829E-1
2.616175833E-1,-1.588910687E-1,-7.250722826E-2,-2.639593944E-2,1.766363934E-1
2.716795834E-1,-2.030533344E-1,-6.834225655E-3,-4.553051412E-2,2.082075670E-1
2.817425834E-1,-1.824328360E-1,6.786746264E-2,-4.450608194E-2,1.996710381E-1
2.918045834E-1,-1.012410307E-1,1.221535975E-1,-8.189712569E-2,1.785451956E-1
3.018665834E-1,6.384633243E-2,1.189440608E-1,-4.251335084E-2,1.415324301E-1
3.119295833E-1,2.238822860E-1,-3.327533484E-2,5.578828454E-3,2.264103558E-1
3.219915833E-1,1.938559565E-1,-1.251122886E-1,1.727706045E-3,2.307297155E-1
3.320579167E-1,2.147702774E-1,-2.340903550E-1,-1.215709224E-2,3.179187967E-1
3.421199167E-1,1.843293804E-1,-2.658518457E-1,-5.244016886E-2,3.277262511E-1
3.521819167E-1,-4.586789846E-2,-2.410152125E-1,-1.412511885E-2,2.457472599E-1
3.622449167E-1,-5.907529682E-2,-2.321128267E-1,-1.234518255E-1,2.694561342E-1
3.723069167E-1,-3.103599742E-1,-1.937773114E-1,-9.269605592E-2,3.774460475E-1
3.823689168E-1,-2.891828209E-1,-1.091990912E-1,1.157070422E-1,3.300594871E-1
3.924319167E-1,-1.505228260E-1,4.669586420E-2,1.929230332E-1,2.491122671E-1
4.024939167E-1,4.546882600E-2,2.813949144E-1,2.396538346E-1,3.724036418E-1
4.125569167E-1,-2.806488097E-2,4.853797102E-1,2.721902275E-1,5.571971111E-1
4.226189167E-1,-3.308664519E-1,4.555290896E-1,2.239037745E-1,6.058978962E-1
4.326809167E-1,-7.624139173E-1,1.516878837E-1,1.048889624E-1,7.844016126E-1
4.427439166E-1,-1.307212741E0,-2.511332345E-1,-5.432414174E-2,1.332225267E0
4.528059167E-1,-1.493519503E0,-4.936681384E-1,-1.272529542E-1,1.578132457E0
4.628679167E-1,-1.218123101E0,-5.792076409E-1,1.133827740E-1,1.353573431E0
4.729309167E-1,-7.177825588E-1,-5.876574522E-1,2.132251507E-1,9.518498032E-1
4.829929167E-1,8.313293472E-2,-1.826243323E-1,1.903935277E-1,2.766087978E-1
4.930559167E-1,4.949195887E-1,-3.375854874E-1,1.949559639E-1,6.300136415E-1
5.031179168E-1,1.264700852E0,-1.546801963E0,-9.417598620E-2,2.000233405E0
5.131799167E-1,6.944919294E-1,-2.531974770E0,-3.346601254E-1,2.646736231E0
5.232429167E-1,4.783592507E-1,-2.911837966E0,-4.881723404E-2,2.951272782E0
5.333049167E-1,4.135551444E-1,-2.628229880E0,2.282818772E-1,2.670343195E0
5.433669167E-1,2.984470032E-1,-1.927936344E0,1.595063420E-1,1.957409367E0
5.534299167E-1,2.698006167E-1,-1.230768728E0,1.819185734E-2,1.260124985E0
5.634919167E-1,-1.477243486E-1,-8.262641966E-1,7.030341268E-2,8.423049184E-1
5.735549167E-1,-3.220967978E-1,-5.315826541E-1,3.546102405E-2,6.225624062E-1
5.836169167E-1,-4.620690541E-1,2.263211596E-1,-3.643049240E-2,5.158064160E-1
5.936789167E-1,-6.134252545E-1,5.013092798E-1,-9.473074079E-3,7.922696991E-1
6.037419167E-1,-3.436522660E-1,5.641048676E-1,1.376585130E-1,6.747303519E-1
6.138039167E-1,2.801596901E-1,1.226400273E0,2.389381354E-1,1.280483704E0
6.238659167E-1,8.380568612E-1,1.551324200E0,3.383140504E-1,1.795383656E0
6.339289166E-1,8.206764512E-1,1.354473007E0,2.540929489E-1,1.603954548E0
6.439909167E-1,4.723127912E-1,1.222925273E0,1.540479662E-1,1.319983474E0
6.540539167E-1,3.754989798E-1,1.179272300E0,1.969396318E-1,1.253183091E0
6.641159167E-1,1.909900899E-1,1.020983495E0,2.071389301E-1,1.059146377E0
6.741779167E-1,-1.443648309E-1,7.035276318E-1,4.994457722E-2,7.199213803E-1
6.842409167E-1,-3.306112209E-1,2.507426405E-1,-6.118935764E-2,4.194279302E-1
6.943029168E-1,-5.034264104E-1,-5.070588470E-1,-1.666416992E-1,7.337004027E-1
7.043649167E-1,-6.193248028E-1,-9.795606494E-1,-2.503216410E-1,1.185648852E0
7.144279167E-1,-1.165583968E-1,-7.613402224E-1,-2.633539152E-1,8.139902203E-1
7.244899167E-1,4.435099916E-1,4.355006218E-3,2.573399077E-1,5.127805640E-1
7.345529167E-1,3.364319779E-1,5.335005409E-1,4.397584181E-1,7.688932105E-1
7.446149167E-1,-2.061457805E-1,4.818772280E-1,1.181580488E-1,5.372737386E-1
7.546769168E-1,-6.433336164E-1,1.364915550E-2,-6.554567948E-2,6.468080686E-1
7.647399167E-1,-5.713447438E-1,-2.360585278E-1,1.264621183E-2,6.183189885E-1
7.748019167E-1,-3.796532804E-1,-3.367627841E-1,6.500700474E-2,5.116362934E-1
7.848639167E-1,-3.552794543E-1,-5.179177111E-1,-5.887678385E-2,6.308159175E-1
7.949269167E-1,-3.345664237E-1,-4.598250389E-1,-1.288327257E-1,5.830708615E-1
8.049889167E-1,-2.128602114E-1,-1.301286149E-1,-5.031543687E-2,2.545084855E-1
8.150519168E-1,1.038940586E-1,9.144519031E-2,4.659543827E-2,1.460388069E-1
8.251139167E-1,2.750460807E-1,2.219363326E-1,5.284567326E-3,3.534600528E-1
8.351759167E-1,-8.615843028E-2,-2.689719200E-5,5.386455059E-2,1.016103619E-1
8.452389167E-1,-1.599149892E-1,-3.934895468E-1,1.349340029E-1,4.456613202E-1
8.553009167E-1,2.900562488E-2,-3.756204557E-1,9.917360142E-2,3.895734286E-1
8.653629167E-1,-6.751341373E-2,-1.879429597E-1,-1.273523569E-2,2.001069798E-1
8.754259167E-1,-3.441027939E-2,2.178263247E-2,-9.279180408E-2,1.013354297E-1
8.854879166E-1,2.290091246E-1,1.950783169E-1,5.516731024E-2,3.058498995E-1
8.955509167E-1,2.931423361E-1,1.936328852E-1,1.908675908E-1,3.998206606E-1
9.056129167E-1,1.326616287E-2,-2.232963949E-1,1.631045723E-1,2.768399765E-1
9.156749167E-1,-8.015889466E-2,-1.039258967E0,8.431743443E-2,1.045750486E0
9.257379167E-1,-1.206127100E-2,-1.345670024E0,1.101380078E-1,1.350223563E0
9.357999167E-1,8.791603021E-2,-1.049975159E0,1.630082394E-1,1.066184200E0
9.458619168E-1,9.071165711E-2,-8.951502442E-1,3.771804929E-2,9.005249667E-1
9.559249167E-1,2.631575949E-2,-9.673990256E-1,-9.477181748E-2,9.723862870E-1
9.659869167E-1,1.409537114E-2,-9.280472642E-1,-8.427606538E-2,9.319725636E-1
9.760499167E-1,2.585721353E-1,-8.323482245E-1,5.529521808E-2,8.733388101E-1
9.861119167E-1,3.660039056E-1,-3.741323394E-1,7.656271085E-3,5.234429145E-1
9.961739167E-1,4.176932920E-1,5.622741044E-2,-8.467301823E-2,4.298822256E-1
1.006236917E0,4.914889177E-1,2.062231100E-1,-1.077309284E-1,5.437787052E-1
1.016298917E0,6.097067543E-1,5.192327499E-1,5.960468911E-2,8.030552246E-1
1.026360917E0,6.381475747E-1,1.045121970E0,2.788478673E-1,1.255893464E0
1.036423917E0,6.939200717E-1,1.344599984E0,2.729667377E-1,1.537525617E0
1.046485917E0,6.311367631E-1,7.753881580E-1,1.341398048E-1,1.008738765E0
1.056547917E0,4.541817449E-2,3.244853854E-2,-1.767413025E-1,1.853461794E-1
1.066610917E0,-3.474216735E-1,-1.659989440E-1,-6.201451671E-1,7.299571884E-1
1.076672917E0,-3.575597953E-1,-8.521164912E-1,-2.537921096E-1,9.583120351E-1
1.086735917E0,-1.728302095E-1,-8.662240684E-1,9.616615914E-2,8.885169375E-1
1.096797917E0,2.665983159E-2,3.079775262E-1,2.560033073E-1,4.013708966E-1
1.106859917E0,1.973181294E-1,9.791905206E-1,6.684295736E-2,1.001107637E0
1.116922917E0,2.109108593E-1,1.218621138E0,-7.022805668E-2,1.238730337E0
1.126984917E0,9.566395640E-2,-1.397129030E0,-6.444894648E-1,1.541586128E0
1.137046917E0,-6.225152263E-2,-7.643918842E-1,5.040581290E-1,9.177389618E-1
1.147109917E0,-1.514695085E-1,9.114341551E-1,2.475606588E-1,9.565257503E-1
1.157171917E0,-1.918570858E-1,1.432884754E0,2.251582215E-1,1.463100846E0
1.167234917E0,-2.172997829E-1,1.608280758E0,3.251209047E-1,1.655140416E0
1.177296917E0,-1.200000771E-1,9.779900873E-1,2.968591187E-1,1.029072381E0
1.187358917E0,1.763988018E-2,-1.191615772E-1,3.633354557E-1,3.827836206E-1
1.197421917E0,1.621122998E-1,-8.977054775E-1,3.489746209E-1,9.766979104E-1
1.207483917E0,2.674814647E-1,-1.499195688E0,1.385193694E-1,1.529157173E0
1.217545917E0,2.868550444E-1,-1.887057289E0,-6.222672679E-2,1.909749511E0
1.227608917E0,2.250566992E-1,-2.067758473E0,-2.370624948E-1,2.093435990E0
1.237670917E0,1.647230816E-1,-1.866397907E0,-3.050902442E-1,1.898329502E0
1.247732917E0,1.669859540E-1,-1.434953499E0,-3.133669049E-1,1.478233632E0
1.257795917E0,3.247213206E-1,-1.405855415E0,-3.200882792E-1,1.477947864E0
1.267857917E0,5.009724802E-1,-1.522254183E0,-1.637665137E-1,1.610916104E0
1.277920917E0,6.406039900E-1,-1.570348116E0,-2.489163358E-2,1.696168114E0
1.287982917E0,6.750569540E-1,-1.260814646E0,2.528390866E-2,1.430382724E0
1.298044917E0,7.360214862E-1,-5.477262318E-1,5.908726534E-2,9.193600808E-1
1.308107917E0,7.810093787E-1,2.137069613E-1,1.670023080E-1,8.267624120E-1
1.318169917E0,7.919395790E-1,4.142816609E-1,3.653720409E-1,9.655538926E-1
1.328228292E0,6.824644261E-1,6.441713762E-1,4.412694848E-1,1.037030960E0
1.338291292E0,-3.088303426E-1,4.053983370E0,3.692195088E-1,4.082460091E0
1.348353292E0,-1.266262058E0,1.052618101E1,1.140360249E0,1.066322314E1
1.358416292E0,4.627340287E-2,5.616109716E0,7.259300691E-1,5.663020752E0
1.368478292E0,1.744525561E-1,8.737470961E-1,3.045744467E-1,9.416120622E-1
1.378540292E0,8.288596295E-2,4.918584251E-1,2.192933911E-1,5.448709798E-1
1.388603292E0,6.253297471E-2,-8.662942350E-2,-2.197202379E-1,2.443194893E-1
1.398665292E0,-3.258895943E-1,-2.847477078E-1,-2.134596241E-1,4.825456412E-1
1.408727292E0,-4.836873067E-1,3.654521477E-1,-2.128924624E-1,6.425199479E-1
1.418790292E0,-1.577474995E-1,1.694347680E-1,8.801927925E-2,2.476687459E-1
1.428852292E0,1.875346778E-1,6.783343184E-1,3.864360505E-1,8.028944663E-1
1.438915292E0,3.409143072E-1,1.765755047E0,4.458642268E-1,1.852810934E0
1.448977292E0,1.182864683E-1,1.959211346E0,4.545303851E-1,2.014720491E0
1.459039292E0,-1.038781980E-1,9.622523063E-1,4.111113006E-1,1.051538246E0
1.469102292E0,-5.031017438E-3,-1.453389770E-1,5.067202932E-1,5.271756679E-1
1.479164292E0,3.495165847E-2,-1.120269801E0,5.667834771E-1,1.255973549E0
1.489226292E0,-6.187699020E-2,-1.472675056E0,5.114746642E-1,1.560194512E0
1.499289292E0,-3.356301785E-4,-1.503342533E0,4.794178891E-1,1.577935486E0
1.509351292E0,1.224526826E-1,-1.185779666E0,4.311163795E-1,1.267647194E0
1.519414292E0,1.156091014E-1,-1.056614088E0,5.028149378E-1,1.175849334E0
1.529476292E0,5.767920099E-2,-2.820954108E-1,6.442941678E-1,7.057050982E-1
1.539538292E0,5.189367346E-2,3.355132341E-2,7.947816181E-1,7.971803216E-1
1.549601292E0,2.940623224E-2,-1.084424615E-1,7.511976421E-1,7.595540741E-1
1.559663292E0,1.056696387E-1,-2.425126845E-1,5.398570490E-1,6.011855853E-1
1.569725292E0,3.807823046E-1,-5.412095100E-1,3.168015593E-1,7.336662219E-1
1.579788292E0,5.756995308E-1,3.964388824E-1,2.141285455E-1,7.310572968E-1
1.589850292E0,5.858534400E-1,1.271630241E0,6.119520029E-2,1.401432330E0
1.599912292E0,3.903840905E-1,1.325702952E0,-8.509043634E-2,1.384604073E0
1.609975292E0,1.132135702E-1,9.368180877E-1,-8.139325102E-2,9.471379536E-1
1.620037292E0,-4.342142344E-3,9.270374501E-1,-4.807697654E-2,9.282934254E-1
1.630100292E0,1.119721332E-1,6.657663131E-1,-9.382442236E-3,6.751818810E-1
1.640162292E0,4.463308346E-1,3.887977409E-1,7.088696480E-2,5.961542242E-1
1.650224292E0,8.207359466E-1,6.723245502E-2,2.072300005E-1,8.491595670E-1
1.660287292E0,8.297260407E-1,1.645254457E-1,3.432607949E-1,9.128756203E-1
1.670349292E0,5.627358882E-1,2.428372049E-1,5.471964741E-1,8.216237394E-1
1.680411292E0,-1.659235150E-2,5.398956406E-1,6.116187572E-1,8.159902653E-1
1.690474292E0,-5.189488676E-1,7.998008680E-1,4.814959896E-1,1.068095381E0
1.700536292E0,-6.810446490E-1,1.104791052E0,1.740996766E-1,1.309463928E0
1.710599292E0,-7.113522296E-1,1.571480722E0,-2.091151245E-1,1.737614108E0
1.720661292E0,-5.388836338E-1,1.905174887E0,-5.781013477E-1,2.062592565E0
1.730723292E0,-1.034285472E-1,1.780635626E0,-6.454051387E-1,1.896815354E0
1.740786292E0,4.663581330E-1,1.537324212E0,-5.233936286E-1,1.689614314E0
1.750848292E0,8.843718524E-1,1.059778601E0,-3.777956200E-1,1.431074347E0
1.760910292E0,1.305521872E0,-1.420405626E-2,-1.751603798E-1,1.317296577E0
1.770973292E0,1.628588723E0,-1.145149119E0,-2.030504107E-2,1.990999756E0
1.781035292E0,1.862194929E0,-2.548696053E0,1.992613967E-1,3.162803602E0
1.791098292E0,2.163815069E0,-3.481852030E0,-1.060731880E-1,4.100809765E0
1.801160292E0,2.045056073E0,-3.082366163E0,-9.650829434E-1,3.822907348E0
1.811222292E0,1.167201893E0,-2.350082510E0,-8.339860296E-1,2.753321768E0
1.821285292E0,4.710326164E-1,-1.118537271E0,-5.249957657E-1,1.322353170E0
1.831347292E0,1.434778082E-1,-3.669537127E-1,-8.335346246E-1,9.219657689E-1
1.841409292E0,1.117007493E-1,-8.687325239E-2,-1.285693964E0,1.293457764E0
1.851472292E0,4.305119236E-1,8.804386497E-2,-1.364323812E0,1.433342841E0
1.861534292E0,1.055625908E0,-1.084161490E-1,-1.491529988E0,1.830508625E0
1.871597292E0,1.613039515E0,2.150722861E-2,-1.251049796E0,2.041441801E0
1.881659292E0,1.867128517E0,3.082505912E-1,-8.294000584E-1,2.066178061E0
1.891721292E0,1.795566345E0,6.747049516E-1,-3.299162793E-1,1.946311902E0
1.901784292E0,1.377449934E0,8.412342381E-1,9.840454638E-2,1.617011694E0
1.911846292E0,8.187642655E-1,7.498036659E-1,3.093469441E-1,1.152508565E0
1.921908292E0,2.231987464E-1,3.438852775E-1,2.712757230E-1,4.915946322E-1
1.931971292E0,-2.669324112E-1,-2.670446777E-1,8.026706815E-2,3.860162876E-1
1.942033292E0,-5.460495427E-1,-7.633481562E-1,2.769124389E-2,9.389554386E-1
1.952095292E0,-6.409559923E-1,-9.640462321E-1,2.928618707E-1,1.194143123E0
1.962158292E0,-7.083290729E-1,-9.957527590E-1,6.403332639E-1,1.379594260E0
1.972220292E0,-7.941433945E-1,-1.014870815E0,6.866654313E-1,1.460183522E0
1.982283292E0,-7.867791188E-1,-7.275491631E-1,1.988719722E-1,1.089907899E0
1.992345292E0,-7.207210770E-1,-2.258680004E-1,-3.160127699E-2,7.559456761E-1
2.002407292E0,-6.857740232E-1,3.815928018E-1,3.955898666E-1,8.788574514E-1
2.012470292E0,-6.277713981E-1,9.643584734E-1,7.966983354E-1,1.399575804E0
2.022532292E0,-6.209652391E-1,1.353318767E0,8.927786136E-1,1.736123027E0
2.032594292E0,-6.117655224E-1,1.424215672E0,6.822776806E-1,1.693561386E0
2.042657292E0,-5.983309597E-1,1.266056675E0,5.829463140E-1,1.516814374E0
2.052719292E0,-3.949469287E-1,9.838782334E-1,4.822105559E-1,1.164700165E0
2.062782292E0,-4.381024500E-2,6.879366159E-1,1.016398839E-1,6.967831737E-1
2.072844292E0,-3.113961008E-1,3.653813964E-1,-6.066287800E-1,7.736081522E-1
2.082906292E0,-5.752186704E-1,2.040654874E-1,-1.294520921E0,1.431189595E0
2.092969292E0,-1.001171958E0,5.070623553E-1,-1.658247555E0,2.002309286E0
2.103031292E0,-1.526238183E0,8.271757776E-1,-2.004026746E0,2.651366809E0
2.113093292E0,-1.901698133E0,1.029754903E0,-2.491588637E0,3.299221860E0
2.123156292E0,-2.302122185E0,9.463005173E-1,-2.797347144E0,3.744382762E0
2.133218292E0,-2.483966499E0,6.483907270E-1,-2.670497063E0,3.704329179E0
2.143281292E0,-2.112060194E0,3.711432427E-1,-2.143240179E0,3.031835094E0
2.153343292E0,-1.326366319E0,-1.099276543E-4,-1.504951102E0,2.006022294E0
2.163405292E0,-5.814643738E-1,-6.925015372E-1,-1.064104444E0,1.396415936E0
2.173468292E0,-1.805023777E-1,-1.490114377E0,-8.959185684E-1,1.748053788E0
2.183530292E0,-6.872291028E-2,-2.162126101E0,-1.015467231E0,2.389704127E0
2.193592292E0,-9.868376920E-2,-2.859129410E0,-1.131567133E0,3.076492101E0
2.203655292E0,-8.426011344E-2,-3.753948117E0,-1.305662205E0,3.975421993E0
2.213717292E0,8.037379811E-2,-4.687198234E0,-1.606508467E0,4.955517802E0
2.223780292E0,4.013482046E-1,-5.530277853E0,-1.979562580E0,5.887590468E0
2.233842292E0,6.918668219E-1,-6.380994521E0,-2.074661111E0,6.745368003E0
2.243904292E0,8.038950884E-1,-7.051020530E0,-1.714587232E0,7.300886741E0
2.253967292E0,1.105970143E0,-7.478113441E0,-1.455266726E0,7.698256415E0
2.264029292E0,1.375017784E0,-7.807594687E0,-1.486749305E0,8.065955133E0
2.274091292E0,1.795221213E0,-7.420110231E0,-1.069103740E0,7.708685871E0
2.284154292E0,2.438326349E0,-6.313894213E0,-2.308478912E-2,6.768399251E0
2.294216292E0,2.018222908E0,-5.085610551E0,6.469698536E-1,5.509557911E0
2.304278292E0,1.990838351E0,-3.348198128E0,3.751188012E-1,3.913385000E0
2.314341292E0,2.213470794E0,-1.942227523E0,1.227986185E-1,2.947334425E0
2.324403292E0,2.149614522E0,-9.801237363E-1,3.438185462E-1,2.387403678E0
2.334466542E0,2.184600752E0,-3.539261162E-2,1.047689994E0,2.423094593E0
2.344528542E0,1.917766574E0,8.444689178E-1,1.469614624E0,2.559438127E0
2.354590542E0,1.391634986E0,1.494781625E0,4.161428297E-1,2.084273230E0
2.364653542E0,6.014343694E-1,2.288690838E0,-1.258964002E0,2.680451345E0
2.374715542E0,-9.193357900E-3,3.719033223E0,-2.327897004E0,4.387527446E0
2.384777542E0,-2.202718496E-1,6.081834596E0,-2.482352375E0,6.572617823E0
2.394840542E0,7.866726995E-2,8.358221138E0,-1.756995918E0,8.541257740E0
2.404902542E0,6.850973542E-1,1.018228754E1,-1.272230019E0,1.028430392E1
2.414965542E0,1.116320592E0,1.195517619E1,-1.500828230E0,1.210061547E1
2.425027542E0,1.369585429E0,1.379596271E1,-1.467177504E0,1.394119655E1
2.435089542E0,1.693578186E0,1.581108513E1,-1.071450813E0,1.593758536E1
2.445152542E0,2.303700348E0,1.712338861E1,-6.835102006E-1,1.729117286E1
2.455214542E0,2.715918527E0,1.823161840E1,-2.446088382E-1,1.843442314E1
2.465276542E0,2.653381971E0,1.856147972E1,2.169785515E-1,1.875142781E1
2.475339542E0,2.084289721E0,1.803090220E1,2.212657300E-1,1.815231821E1
2.485401542E0,1.377544074E0,1.691055931E1,1.793470410E-1,1.696752219E1
2.495464542E0,7.699847460E-1,1.534083217E1,2.223018201E-1,1.536175206E1
2.505526542E0,1.546237707E-1,1.343216299E1,6.429656804E-1,1.344843172E1
2.515588542E0,-5.224949481E-1,1.143789173E1,1.165892701E0,1.150902577E1
2.525651542E0,-1.115946370E0,9.215504814E0,1.622711102E0,9.423590430E0
2.535713542E0,-1.707059234E0,6.438221805E0,1.690413673E0,6.871844703E0
2.545775542E0,-2.305562102E0,3.324858382E0,1.437832668E0,4.293909949E0
2.555838542E0,-2.539634038E0,3.002884376E-1,9.474834090E-1,2.727203514E0
2.565900542E0,-2.383585301E0,-2.395120688E0,6.004096448E-1,3.431992678E0
2.575962542E0,-2.312244300E0,-4.953631293E0,3.169331217E-1,5.475891095E0
2.586025542E0,-2.065034840E0,-7.494410800E0,-5.451359153E-2,7.773900814E0
2.596087542E0,-1.548057945E0,-9.737755896E0,-3.516498317E-1,9.866307866E0
2.606150542E0,-6.201822969E-1,-1.096965138E1,-6.932435489E-1,1.100901740E1
2.616212542E0,4.504039685E-1,-1.184548477E1,-1.430955173E0,1.194010074E1
2.626274542E0,1.207815776E0,-1.283838058E1,-1.959345832E0,1.304307751E1
2.636337542E0,1.611383876E0,-1.361253672E1,-2.032670501E0,1.385746959E1
2.646399542E0,1.527661395E0,-1.407260852E1,-1.596596267E0,1.424504052E1
2.656461542E0,9.966582003E-1,-1.350536545E1,-4.228636193E-1,1.354869134E1
2.666524542E0,1.266948083E0,-1.132479138E1,9.082105851E-1,1.143157486E1
2.676586542E0,1.742341918E0,-9.400281506E0,2.497296689E0,9.881170908E0
2.686649542E0,1.369926906E0,-8.389085081E0,3.478914388E0,9.184568229E0
2.696711542E0,3.812954709E-1,-8.028007236E0,3.205531914E0,8.652729122E0
2.706773542E0,-7.601108453E-1,-8.104105239E0,2.204596767E0,8.432943562E0
2.716836542E0,-1.759117287E0,-8.407987375E0,9.108757460E-1,8.638196569E0
2.726898542E0,-2.567954735E0,-8.690212594E0,-2.835852448E-1,9.066124147E0
2.736960542E0,-3.174603066E0,-9.012736239E0,-1.129388534E0,9.622007982E0
2.747023542E0,-3.378602773E0,-9.358829425E0,-1.522800897E0,1.006586149E1
2.757085542E0,-2.870402549E0,-9.760656517E0,-1.560803706E0,1.029299444E1
2.767147542E0,-1.919884143E0,-1.028699948E1,-1.356383293E0,1.055216040E1
2.777210542E0,-9.708173078E-1,-1.082010533E1,-9.738607836E-1,1.090713393E1
2.787272542E0,-7.152898908E-2,-1.128981918E1,-8.631741607E-1,1.132299445E1
2.797335542E0,7.589677146E-1,-1.161297257E1,-1.024567838E0,1.168276094E1
2.807397542E0,1.187268660E0,-1.163688535E1,-5.902132702E-1,1.171217568E1
2.817459542E0,1.211072382E0,-1.157497386E1,-3.706818974E-1,1.164405948E1
2.827522542E0,9.374317530E-1,-1.138054575E1,-5.616408509E-1,1.143289291E1
2.837584542E0,5.477019659E-1,-1.092061546E1,-1.093714086E0,1.098890486E1
2.847646542E0,1.853850952E-1,-1.019956723E1,-1.399394242E0,1.029678803E1
2.857709542E0,3.303179830E-2,-9.227420855E0,-2.136902382E0,9.471680871E0
2.867771542E0,3.743672512E-2,-7.570211180E0,-3.257285035E0,8.241322990E0
2.877834542E0,-3.707979646E-1,-4.297275488E0,-2.798152306E0,5.141373754E0
2.887896542E0,-1.650304990E0,7.359714925E-2,6.975014913E-1,1.793162410E0
2.897958542E0,-2.728041852E0,3.398360807E0,3.265675789E0,5.445705361E0
2.908021542E0,-1.986362892E0,6.891935334E0,3.744528837E0,8.091100444E0
2.918083542E0,-3.966500399E-1,1.101043454E1,4.322200999E0,1.183505055E1
2.928145542E0,2.113973403E0,1.467820347E1,2.813476689E0,1.509417741E1
2.938208542E0,5.675650744E0,1.710476990E1,-1.418399008E0,1.807755571E1
2.948270542E0,8.098350409E0,1.865740095E1,-4.445525794E0,2.081933210E1
2.958332542E0,5.523842992E0,1.801968256E1,-2.097910810E0,1.896372935E1
2.968395542E0,2.062814944E0,1.825042773E1,-8.466885209E-1,1.838614150E1
2.978457542E0,6.096251491E-1,2.061404069E1,-2.286432059E0,2.074941175E1
2.988520542E0,8.368935576E-1,2.332526361E1,-3.583709357E0,2.361379441E1
2.998582542E0,2.671706268E0,2.561465670E1,-3.576617854E0,2.600078552E1
3.008644542E0,4.736702223E0,2.557821686E1,-2.121024853E0,2.609943049E1
3.018707542E0,5.863376187E0,2.363858550E1,-1.241375577E0,2.438653149E1
3.028769542E0,6.394116842E0,2.188595043E1,-1.625611321E0,2.285874381E1
3.038831542E0,6.081008384E0,2.001360181E1,-1.695459820E0,2.098564997E1
3.048894542E0,4.639981967E0,1.745376097E1,-1.425278696E0,1.811614263E1
3.058956542E0,2.636962697E0,1.441138216E1,-1.340561897E0,1.471185285E1
3.069019542E0,6.083226087E-1,1.134982448E1,-1.051074436E0,1.141461036E1
3.079081542E0,-1.579813004E0,8.389499649E0,-4.363893986E-1,8.548096232E0
3.089143542E0,-3.523105305E0,5.457912127E0,5.533033061E-1,6.519756156E0
3.099206542E0,-4.844716084E0,2.486513253E0,1.536967531E0,5.658294026E0
3.109268542E0,-5.198102794E0,-4.290564054E-1,1.874338426E0,5.542337647E0
3.119330542E0,-4.741384673E0,-3.296368409E0,1.902585155E0,6.080016742E0
3.129393542E0,-3.495807287E0,-6.002212476E0,1.719160339E0,7.155608672E0
3.139455542E0,-2.121938188E0,-8.407248872E0,8.892620981E-1,8.716377823E0
3.149517542E0,-8.232426479E-1,-1.032860359E1,-5.299214602E-2,1.036149549E1
3.159580542E0,4.478709912E-1,-1.179853981E1,-8.560206771E-1,1.183802777E1
3.169642542E0,9.967219350E-1,-1.355944050E1,-1.289563651E0,1.365704418E1
3.179705542E0,1.032772358E0,-1.508877157E1,-1.651420931E0,1.521396849E1
3.189767542E0,1.010785950E0,-1.599129749E1,-1.139519493E0,1.606367916E1
3.199829542E0,1.057409894E0,-1.608544000E1,1.750960787E-1,1.612110897E1
3.209892542E0,1.181437816E0,-1.432220042E1,1.161599675E0,1.441771598E1
3.219954542E0,1.458800783E0,-1.146718979E1,1.503133788E0,1.165692724E1
3.230016542E0,1.157708938E0,-9.556110388E0,1.183761792E0,9.698496157E0
3.240079542E0,4.267944100E-1,-8.260226482E0,4.142149296E-3,8.271246106E0
3.250141542E0,-2.640839401E-1,-7.188444716E0,-1.068679233E0,7.272245394E0
3.260204542E0,-6.641475114E-1,-6.497907844E0,-1.911520286E0,6.805718776E0
3.270266542E0,-6.722581843E-1,-6.435317493E0,-2.713447201E0,7.016269523E0
3.280328542E0,-3.233510256E-1,-6.762324783E0,-2.465934563E0,7.205166592E0
3.290391542E0,2.603466739E-1,-7.739372883E0,-1.710812269E0,7.930482434E0
3.300453542E0,8.601964661E-1,-8.825969739E0,-7.354499209E-1,8.898233891E0
3.310515542E0,1.350941581E0,-9.882376835E0,-4.525635280E-2,9.974390368E0
3.320578542E0,1.876670003E0,-1.078531323E1,3.143164196E-1,1.095187959E1
3.330639917E0,2.209289158E0,-1.135260542E1,3.837995045E-1,1.157194497E1
3.340701917E0,2.134097473E0,-1.178666528E1,1.806696081E-1,1.197966995E1
3.350764917E0,1.648179234E0,-1.192218269E1,-1.141417791E-1,1.203611081E1
3.360826917E0,9.985930440E-1,-1.167345968E1,-3.976949374E-1,1.172284139E1
3.370889917E0,4.639262760E-1,-1.129707558E1,-6.661148071E-1,1.132620206E1
3.380951917E0,1.901210475E-1,-1.075831313E1,-1.017644734E0,1.080800852E1
3.391013917E0,-8.098159790E-2,-1.019851006E1,-1.134013681E0,1.026168370E1
3.401076917E0,-4.993095686E-1,-9.848323821E0,-7.471379203E-1,9.889236937E0
3.411138917E0,-9.716613534E-1,-9.987147245E0,-5.110606813E-1,1.004730904E1
3.421200917E0,-1.397491850E0,-1.046506825E1,-5.098842216E-1,1.057027052E1
3.431263917E0,-1.514168361E0,-1.021062549E1,-3.414130747E-1,1.032793017E1
3.441325917E0,-1.627655507E0,-8.896332793E0,1.672753912E-1,9.045550325E0
3.451388917E0,-1.461760351E0,-6.459467663E0,5.916446686E-2,6.623063207E0
3.461450917E0,-1.489934868E0,-3.423825431E0,-4.685104930E-1,3.763241764E0
3.471512917E0,-1.801137572E0,-2.172100282E-1,-1.050531814E0,2.096400210E0
3.481575917E0,-2.167603481E0,3.013476022E0,-1.664792343E0,4.068301382E0
3.491637917E0,-2.723156210E0,7.296303041E0,-1.541361275E0,7.938980564E0
3.501699917E0,-3.034157040E0,1.386047036E1,-1.195061244E-2,1.418868882E1
3.511762917E0,-2.355547171E0,2.064315749E1,2.704704444E0,2.095242181E1
3.521824917E0,2.239688247E-2,2.394080468E1,4.125442193E0,2.429365975E1
3.531886917E0,2.549640963E0,2.086001435E1,3.083078939E0,2.124020347E1
3.541949917E0,3.596912954E0,1.658993075E1,9.022816546E-1,1.699934402E1
3.552011917E0,4.243941280E0,1.577321506E1,-4.673082324E-1,1.634086068E1
3.562074917E0,4.906210374E0,1.758395741E1,-1.408550981E0,1.830984638E1
3.572136917E0,5.058578873E0,2.042855532E1,-2.206699572E0,2.116092190E1
3.582198917E0,4.448880926E0,2.340804849E1,-2.440873396E0,2.395176692E1
3.592261917E0,3.670179736E0,2.543408767E1,-2.529022511E0,2.582167674E1
3.602323917E0,3.372507927E0,2.541463983E1,-2.914932897E0,2.580260764E1
3.612385917E0,3.118150538E0,2.323106029E1,-3.042871145E0,2.363607603E1
3.622448917E0,2.365957115E0,2.041833205E1,-2.463560593E0,2.070205708E1
3.632510917E0,9.159153150E-1,1.711196665E1,-2.133196417E0,1.726872406E1
3.642572917E0,-1.092547421E0,1.400592219E1,-3.042695729E0,1.437419610E1
3.652635917E0,-2.271487453E0,1.206337190E1,-3.137668544E0,1.267002608E1
3.662697917E0,-1.975647138E0,1.092165393E1,-1.425702034E0,1.119009975E1
3.672760917E0,-2.049749779E0,8.889562887E0,8.389468074E-2,9.123203428E0
3.682822917E0,-2.489624557E0,5.776978313E0,8.009621251E-1,6.341391739E0
3.692884917E0,-2.594142075E0,2.660778991E0,7.768318355E-1,3.796417475E0
3.702947917E0,-2.271578377E0,-7.402095544E-1,5.402067125E-1,2.449449285E0
3.713009917E0,-2.210895096E0,-5.145234025E0,1.028478273E-1,5.601077393E0
3.723071917E0,-1.668500063E0,-7.410568745E0,-3.389642608E-1,7.603638494E0
3.733134917E0,-6.807427865E-1,-8.529343997E0,-4.497122794E-1,8.568276425E0
3.743196917E0,6.990492493E-2,-1.020060102E1,-5.215079015E-1,1.021416264E1
3.753258917E0,8.063629058E-1,-1.212413617E1,-5.949688107E-1,1.216547931E1
3.763321917E0,1.539999605E0,-1.383360942E1,-5.463766944E-1,1.392978377E1
3.773383917E0,2.402927013E0,-1.489747523E1,-4.997884190E-1,1.509829841E1
3.783446917E0,3.190751614E0,-1.503749967E1,-2.227046750E-1,1.537390287E1
3.793508917E0,3.543919931E0,-1.426747283E1,2.744156595E-1,1.470358641E1
3.803570917E0,3.116297556E0,-1.295737024E1,5.219060969E-1,1.333705890E1
3.813633917E0,2.159213603E0,-1.162753331E1,4.661207360E-1,1.183549757E1
3.823695917E0,1.119621637E0,-1.059316671E1,6.321832320E-2,1.065235796E1
3.833757917E0,3.068028206E-1,-9.501341858E0,-2.945979456E-1,9.510857639E0
3.843820917E0,-2.417262340E-1,-8.621104937E0,-6.313244587E-1,8.647569166E0
3.853882917E0,-5.575852221E-1,-8.088176839E0,-1.074706542E0,8.178294444E0
3.863945917E0,-7.552807528E-1,-7.964628096E0,-1.545580480E0,8.148286245E0
3.874007917E0,-8.274438724E-1,-8.280061406E0,-1.830002498E0,8.520151959E0
3.884069917E0,-5.843189844E-1,-8.767306963E0,-1.616711859E0,8.934251916E0
3.894132917E0,-1.181026465E-1,-9.336840971E0,-9.578856057E-1,9.386591095E0
3.904194917E0,4.451868269E-1,-1.001245283E1,-3.322458100E-1,1.002785073E1
3.914256917E0,1.009475005E0,-1.060247782E1,7.138163924E-2,1.065066528E1
3.924319917E0,1.394426155E0,-1.089089407E1,1.314454079E-1,1.098058631E1
3.934381917E0,1.311633089E0,-1.080400912E1,1.343631502E-1,1.088416501E1
3.944443917E0,1.017483351E0,-1.056108888E1,1.729023496E-2,1.061000329E1
3.954506917E0,6.275866261E-1,-1.033125939E1,-6.676992198E-2,1.035051902E1
3.964568917E0,3.610819387E-1,-1.016998968E1,-2.051945847E-1,1.017846624E1
3.974631917E0,1.858762430E-1,-1.009310815E1,-2.722978163E-1,1.009849138E1
3.984693917E0,-1.374092937E-1,-1.021024191E1,-6.042044878E-2,1.021134525E1
3.994755917E0,-5.973457404E-1,-1.015656681E1,3.971241760E-1,1.018186520E1
4.004818917E0,-9.190586320E-1,-9.975645772E0,6.520417285E-1,1.003909038E1
4.014880917E0,-1.023013940E0,-9.557012029E0,6.878968549E-1,9.636194193E0
4.024942917E0,-1.128154114E0,-8.476701515E0,6.488316071E-1,8.576023713E0
4.035005917E0,-1.338272565E0,-6.706184496E0,-1.051761337E-1,6.839221152E0
4.045067917E0,-1.233547325E0,-3.354872140E0,-1.401528475E0,3.839412474E0
4.055129917E0,-1.089771090E0,1.190089649E-1,-2.273738923E0,2.524213313E0
4.065192917E0,-7.167420468E-1,2.922667594E0,-1.818158963E0,3.515879270E0
4.075254917E0,5.630791929E-1,6.555818083E0,-2.723351654E-1,6.585588459E0
4.085317917E0,2.027198823E0,1.117002494E1,2.251208578E0,1.157354450E1
4.095379917E0,3.188080606E0,1.611569115E1,4.630272081E0,1.706806313E1
4.105441917E0,3.516980347E0,1.936343470E1,4.474649606E0,2.018252321E1
4.115504917E0,1.950389359E0,1.893631665E1,1.851350098E0,1.912630660E1
4.125566917E0,-3.919117487E-1,1.712347047E1,-1.868215806E0,1.722954050E1
4.135628917E0,-7.191116309E-1,1.818334379E1,-5.549323404E0,1.902488116E1
4.145691917E0,5.161291941E-1,2.130903841E1,-7.066546057E0,2.245612568E1
4.155753917E0,2.106161231E0,2.457830088E1,-7.158665432E0,2.568609118E1
4.165815917E0,4.059127458E0,2.702266155E1,-5.758969474E0,2.792608964E1
4.175878917E0,6.187404320E0,2.668270210E1,-3.778929469E0,2.765015138E1
4.185940917E0,7.416682593E0,2.436995289E1,-2.404134171E0,2.558674746E1
4.196003917E0,7.215271157E0,2.191178109E1,-2.293466259E0,2.318288757E1
4.206065917E0,6.285401900E0,2.002341344E1,-2.743597784E0,2.116531813E1
4.216127917E0,5.034371985E0,1.799991430E1,-2.961603034E0,1.892387139E1
4.226190917E0,3.317932063E0,1.557516401E1,-2.723537157E0,1.615586772E1
4.236252917E0,1.309280170E0,1.286354816E1,-1.774924650E0,1.305126214E1
4.246314917E0,-3.782674172E-1,9.960266426E0,-5.803665590E-1,9.984328663E0
4.256377917E0,-1.735424077E0,6.590981483E0,6.057645249E-1,6.842491089E0
4.266439917E0,-2.704850917E0,2.768928507E0,1.165317335E0,4.042418589E0
4.276501917E0,-3.100604798E0,-1.127974092E0,1.409843801E0,3.587998775E0
4.286564917E0,-2.295436479E0,-4.438250688E0,1.861677450E0,5.332254751E0
4.296626917E0,-7.541879082E-1,-7.303916116E0,2.311810144E0,7.698081330E0
4.306689917E0,3.248707169E-1,-9.915359809E0,2.294919292E0,1.018265956E1
4.316751917E0,7.427115780E-1,-1.192263527E1,1.824668668E0,1.208429841E1
4.326813917E0,9.153959361E-1,-1.314622011E1,1.067394015E0,1.322120958E1
4.336877167E0,1.076746636E0,-1.389967594E1,2.007126939E-1,1.394276372E1
4.346939167E0,1.422137864E0,-1.417691700E1,-4.798143303E-1,1.425614511E1
4.357001167E0,2.025772833E0,-1.387076263E1,-1.488444193E-1,1.401870059E1
4.367064167E0,2.694796337E0,-1.317650167E1,8.762017572E-1,1.347775400E1
4.377126167E0,2.749520136E0,-1.239730171E1,1.385931612E0,1.277394838E1
4.387189167E0,1.955877848E0,-1.131281161E1,9.279811907E-1,1.151808637E1
4.397251167E0,8.807614160E-1,-1.019377849E1,-1.735582244E-1,1.023322936E1
4.407313167E0,-3.158645430E-1,-9.216203556E0,-1.205341526E0,9.300055193E0
4.417376167E0,-1.411250348E0,-8.374347759E0,-1.738531580E0,8.668553512E0
4.427438167E0,-2.091656335E0,-7.767803215E0,-1.975902808E0,8.283597342E0
4.437500167E0,-2.235476206E0,-7.457053524E0,-2.226795722E0,8.097136550E0
4.447563167E0,-1.714287562E0,-7.480465776E0,-2.463008616E0,8.059935577E0
4.457625167E0,-6.798133716E-1,-7.820407106E0,-2.353210770E0,8.195029863E0
4.467687167E0,2.341216376E-1,-8.398361689E0,-1.882821566E0,8.610012140E0
4.477750167E0,6.923930714E-1,-8.937650388E0,-1.303173046E0,9.058656778E0
4.487812167E0,9.173120686E-1,-9.446896679E0,-9.768545580E-1,9.541465460E0
4.497875167E0,9.348005059E-1,-9.860204194E0,-8.294683977E-1,9.939089322E0
4.507937167E0,5.942972580E-1,-1.031172034E1,-6.505190405E-1,1.034929662E1
4.517999167E0,1.725527957E-1,-1.056721209E1,-6.035286228E-1,1.058583925E1
4.528062167E0,-7.727593412E-2,-1.064083438E1,-5.836983756E-1,1.065711179E1
4.538124167E0,-1.500193899E-1,-1.086144749E1,-4.446352152E-1,1.087157982E1
4.548186167E0,-9.906078670E-3,-1.122486013E1,-4.746419565E-1,1.123489510E1
4.558249167E0,1.154240187E-1,-1.142667911E1,-6.753774545E-1,1.144720285E1
4.568311167E0,1.972163879E-1,-1.120807862E1,-1.062534905E0,1.126005777E1
4.578373167E0,1.445569484E-1,-1.088053163E1,-1.299052513E0,1.095875918E1
4.588436167E0,-3.431146145E-2,-1.050126602E1,-1.250747495E0,1.057554418E1
4.598498167E0,-2.299982177E-1,-1.017042939E1,-1.071504607E0,1.022930375E1
4.608561167E0,-2.995122197E-1,-9.511432983E0,-8.643488663E-1,9.555321236E0
4.618623167E0,-2.245178783E-1,-7.702717858E0,-1.007509171E0,7.771572904E0
4.628685167E0,-6.102575254E-1,-5.082871131E0,-1.825514760E0,5.435117047E0
4.638748167E0,-1.201834293E0,-1.253040773E0,-1.542670906E0,2.322574083E0
4.648810167E0,-1.344236579E0,3.175507631E0,-9.020028155E-2,3.449486452E0
4.658872167E0,-1.558298028E0,6.945457823E0,1.195919250E0,7.217887500E0
4.668935167E0,-2.178211061E0,9.858983295E0,1.569341226E0,1.021797372E1
4.678997167E0,-1.984645418E0,1.224487298E1,1.609106824E0,1.250859531E1
4.689059167E0,5.590281688E-1,1.410162708E1,1.537515854E0,1.419620913E1
4.699122167E0,4.543329831E0,1.546428326E1,6.592245213E-1,1.613135084E1
4.709184167E0,7.948082814E0,1.757334237E1,-3.316808228E-1,1.929000764E1
4.719247167E0,9.505957065E0,1.941926158E1,2.231399819E-2,2.162108781E1
4.729309167E0,8.203913117E0,2.024760271E1,2.046687739E-1,2.184745969E1
4.739371167E0,4.881078456E0,2.070438251E1,-1.395613432E0,2.131769498E1
4.749434167E0,1.504298407E0,2.236162143E1,-3.781878512E0,2.272900419E1
4.759496167E0,-1.389651903E0,2.427855155E1,-5.504826093E0,2.493355788E1
4.769558167E0,-3.056570587E0,2.495465575E1,-5.923018956E0,2.582943322E1
4.779621167E0,-2.479391930E0,2.475240056E1,-5.462599840E0,2.546897553E1
4.789683167E0,6.096073151E-2,2.328423721E1,-4.633251530E0,2.374081798E1
4.799745167E0,2.809034559E0,2.160359073E1,-3.563138852E0,2.207491259E1
4.809808167E0,4.641822671E0,2.029973882E1,-2.775137665E0,2.100779148E1
4.819870167E0,5.284032891E0,1.868841692E1,-2.344745171E0,1.956210011E1
4.829933167E0,4.271358874E0,1.601757371E1,-1.493954244E0,1.664449078E1
4.839995167E0,1.746450172E0,1.242832937E1,-3.015759579E-1,1.255405940E1
4.850057167E0,-1.058393176E0,9.122235292E0,1.075065562E0,9.246141833E0
4.860120167E0,-3.661418853E0,5.829697394E0,1.967712028E0,7.159835916E0
4.870182167E0,-5.192026953E0,2.377163304E0,1.711330333E0,5.961266707E0
4.880244167E0,-5.180314980E0,-9.987523806E-1,1.289395836E0,5.430995418E0
4.890307167E0,-4.167250954E0,-4.449921731E0,8.624876976E-1,6.157245240E0
4.900369167E0,-2.656026666E0,-7.614043078E0,2.743390793E-1,8.068667274E0
4.910431167E0,-9.476310512E-1,-1.015825081E1,-3.642160463E-1,1.020885485E1
4.920494167E0,7.265758941E-1,-1.227431138E1,-8.831962696E-1,1.232747614E1
4.930556167E0,2.210376448E0,-1.413013576E1,-1.109027433E0,1.434490999E1
4.940619167E0,3.564001609E0,-1.546704783E1,-1.199659202E0,1.591762728E1
4.950681167E0,4.732011294E0,-1.629274952E1,-3.527303972E-1,1.696967992E1
4.960743167E0,5.333336613E0,-1.630659573E1,9.766761448E-1,1.718439525E1
4.970806167E0,5.201175506E0,-1.514086441E1,1.471151857E0,1.607676241E1
4.980868167E0,4.164234083E0,-1.305237697E1,1.283169136E0,1.376052009E1
4.990930167E0,2.520991653E0,-1.106670932E1,9.723837769E-1,1.139179460E1
5.000993167E0,1.017358513E0,-9.675619290E0,8.942965508E-1,9.769974069E0
5.011055167E0,-3.323256245E-1,-8.578999722E0,7.495077968E-1,8.618087867E0
5.021117167E0,-1.442490852E0,-7.688838907E0,2.330448363E-1,7.826450887E0
5.031180167E0,-2.181604346E0,-7.010232108E0,-6.463863015E-1,7.370248774E0
5.041242167E0,-2.518272405E0,-6.767993073E0,-1.750954574E0,7.430563106E0
5.051305167E0,-2.150484880E0,-6.926987638E0,-2.460380877E0,7.659061105E0
5.061367167E0,-1.011486447E0,-7.384466189E0,-2.193373622E0,7.769448730E0
5.071429167E0,3.310994634E-1,-8.184654728E0,-1.661191628E0,8.358095327E0
5.081492167E0,1.275308432E0,-9.059824451E0,-1.351429532E0,9.248415673E0
5.091554167E0,1.774322972E0,-9.679626387E0,-1.056698288E0,9.897474439E0
5.101616167E0,2.104859348E0,-1.014536355E1,-8.661345329E-1,1.039754891E1
5.111679167E0,2.149596103E0,-1.074550656E1,-6.731490076E-1,1.097906208E1
5.121741167E0,1.930455616E0,-1.114130926E1,-6.164298463E-1,1.132410777E1
5.131803167E0,1.562174878E0,-1.116439992E1,-8.818629583E-1,1.130760355E1
5.141866167E0,1.077137815E0,-1.116040276E1,-1.166617756E0,1.127279081E1
5.151928167E0,4.795096904E-1,-1.145916858E1,-1.245152879E0,1.153658874E1
5.161991167E0,-2.917286986E-1,-1.211152957E1,-1.183243729E0,1.217268745E1
5.172053167E0,-7.921597266E-1,-1.275698733E1,-1.936555139E0,1.292743163E1
5.182115167E0,-9.413409090E-1,-1.287434797E1,-2.862742989E0,1.322233927E1
5.192178167E0,-8.667941719E-1,-1.224330125E1,-2.784368080E0,1.258580404E1
5.202240167E0,-6.522914046E-1,-1.126359676E1,-2.279242322E0,1.151038842E1
5.212302167E0,-3.088344356E-1,-1.054447577E1,-1.566881887E0,1.066473004E1
5.222365167E0,1.772869939E-1,-9.639840177E0,-9.948253906E-1,9.692658401E0
5.232427167E0,6.656221792E-1,-7.973402427E0,-7.438143629E-1,8.035636811E0
5.242489167E0,1.063085201E0,-5.445648762E0,-9.331454515E-1,5.626366591E0
5.252552167E0,8.370900241E-1,-1.847400303E0,-2.378577161E-1,2.042102809E0
5.262614167E0,-1.545024410E-1,2.175513886E0,1.182525691E0,2.480947134E0
5.272677167E0,-8.903873216E-1,6.423539447E0,1.556845726E0,6.669214138E0
5.282739167E0,-6.285715165E-1,1.164587837E1,1.216648799E0,1.172611698E1
5.292801167E0,7.018812020E-1,1.694687286E1,-3.907777543E-1,1.696590240E1
5.302864167E0,2.291202217E0,2.077729496E1,2.673171580E-1,2.090495280E1
5.312926167E0,3.359728253E0,2.173871754E1,2.796788735E0,2.217389550E1
5.322988167E0,3.891388967E0,2.006134550E1,1.306604776E0,2.047700435E1
5.333051917E0,4.552005345E0,1.939848642E1,-2.208272035E0,2.004740615E1
5.343113917E0,4.737903534E0,1.935257174E1,-3.888572364E0,2.030001867E1
5.353175917E0,3.380307821E0,2.034655864E1,-4.501295367E0,2.111091162E1
5.363238917E0,8.145576324E-1,2.213121540E1,-4.537355146E0,2.260623345E1
5.373300917E0,-7.763259052E-1,2.372623058E1,-4.313240726E0,2.412759302E1
5.383363917E0,-1.666070545E-1,2.377826846E1,-4.686536329E0,2.423628337E1
5.393425917E0,1.978872170E0,2.325359546E1,-5.066631074E0,2.388129786E1
5.403487917E0,3.750212623E0,2.197349027E1,-3.761136099E0,2.260629368E1
5.413550917E0,4.484519121E0,2.034001210E1,-1.827541405E0,2.090853681E1
5.423612917E0,4.242049706E0,1.852719983E1,-6.072556380E-1,1.901633190E1
5.433674917E0,3.253791616E0,1.641261043E1,-3.104286424E-1,1.673491281E1
5.443737917E0,2.204061601E0,1.406056793E1,-6.423598357E-1,1.424675697E1
5.453799917E0,8.935653564E-1,1.058552791E1,-5.104408765E-1,1.063543182E1
5.463861917E0,-2.673507795E-1,6.818908288E0,-8.503418612E-1,6.876922856E0
5.473924917E0,-1.180477484E0,3.490856742E0,-8.966389453E-1,3.792567637E0
5.483986917E0,-1.519140102E0,5.204495555E-1,-6.805223465E-1,1.744065668E0
5.494049917E0,-1.267926614E0,-2.504746626E0,-1.083749261E0,3.009303245E0
5.504111917E0,-1.392270871E0,-4.776003991E0,8.043827462E-1,5.039411067E0
5.514173917E0,-1.078090034E0,-7.104778077E0,1.792439400E0,7.406280352E0
5.524236917E0,-7.384439877E-1,-9.532024537E0,1.846087604E0,9.737188031E0
5.534298917E0,-3.841500816E-1,-1.157295423E1,1.620817773E0,1.169221498E1
5.544360917E0,-2.067431102E-2,-1.332676575E1,1.164469489E0,1.337755965E1
5.554423917E0,2.756342375E-1,-1.459450058E1,5.644363682E-1,1.460801184E1
5.564485917E0,3.382149401E-1,-1.575233348E1,1.275862455E-1,1.575648050E1
5.574547917E0,2.692262739E-2,-1.674077722E1,-4.351497889E-2,1.674085542E1
5.584610917E0,-3.721867149E-1,-1.621991193E1,-9.364557065E-2,1.622445177E1
5.594672917E0,-2.875289542E-1,-1.370086593E1,-9.412734468E-2,1.370420593E1
5.604735917E0,-4.761698339E-3,-1.129148096E1,-4.160880486E-2,1.129155863E1
5.614797917E0,-7.118897349E-2,-9.614220017E0,-5.481355369E-2,9.614639823E0
5.624859917E0,-2.964617273E-1,-8.120266943E0,-2.144887340E-1,8.128507255E0
5.634922917E0,-6.308981967E-1,-6.905815455E0,-3.852783384E-1,6.945268823E0
5.644984917E0,-1.056433701E0,-6.078725047E0,-5.888894971E-1,6.197881993E0
5.655046917E0,-1.428717151E0,-5.756171581E0,-7.947792792E-1,5.983846428E0
5.665109917E0,-1.677670543E0,-6.263516357E0,-9.613033032E-1,6.555175028E0
5.675171917E0,-1.742203631E0,-7.647407291E0,-7.867728330E-1,7.882710400E0
5.685233917E0,-1.305807216E0,-9.117832924E0,-4.944422732E-1,9.224125046E0
5.695296917E0,-3.908729178E-1,-1.030613508E1,-5.874440289E-1,1.033026100E1
5.705358917E0,6.687191570E-1,-1.125069780E1,-8.405723333E-1,1.130185596E1
5.715420917E0,1.748095286E0,-1.197739444E1,-1.187739068E0,1.216242323E1
5.725483917E0,2.593298906E0,-1.229133379E1,-1.384416599E0,1.263798619E1
5.735545917E0,2.718321148E0,-1.220670353E1,-1.316982415E0,1.257486873E1
5.745608917E0,2.255251781E0,-1.212841633E1,-9.762335837E-1,1.237488082E1
5.755670917E0,1.637548704E0,-1.201950609E1,-1.067769406E0,1.217744735E1
5.765732917E0,9.187498990E-1,-1.196335294E1,-1.321669543E0,1.207115261E1
5.775795917E0,2.766194751E-1,-1.186124769E1,-1.512436123E0,1.196048403E1
5.785857917E0,-3.397258972E-1,-1.174215745E1,-1.584915869E0,1.185350723E1
5.795919917E0,-6.414337099E-1,-1.146209570E1,-1.420203313E0,1.156754306E1
5.805982917E0,-3.424994874E-1,-1.083590100E1,-1.183250746E0,1.090569295E1
5.816044917E0,-9.398467261E-2,-9.875963609E0,-7.802641511E-1,9.907184387E0
5.826106917E0,-1.613995973E-1,-7.890159127E0,-4.100511638E-1,7.902455494E0
5.836169917E0,-6.768041752E-1,-3.799603761E0,1.009630614E0,3.989286479E0
5.846231917E0,-1.976257149E0,8.806690300E-1,3.607405783E0,4.206488648E0
5.856294917E0,-2.105972366E0,4.302140372E0,3.865002530E0,6.154817295E0
5.866356917E0,-1.032355598E0,7.572208005E0,1.905591063E0,7.876253516E0
5.876418917E0,3.987665858E-1,1.280161094E1,-8.175505297E-1,1.283388665E1
5.886481917E0,2.874472504E0,2.006071400E1,-1.901375366E0,2.035460799E1
5.896543917E0,6.053405433E0,2.465865098E1,-5.558455293E-1,2.539688464E1
5.906605917E0,6.346664933E0,2.223377089E1,3.024065330E0,2.331878416E1
5.916668917E0,5.291361791E0,1.878183555E1,3.513485466E0,1.982676061E1
5.926730917E0,5.089720559E0,1.872044914E1,-1.592641211E0,1.946527620E1
5.936792917E0,4.223510816E0,2.178639106E1,-5.687390199E0,2.290919654E1
5.946855917E0,2.855777493E0,2.521920951E1,-7.591193329E0,2.649132329E1
5.956917917E0,1.496464746E0,2.575622949E1,-7.688183434E0,2.692082704E1
5.966980917E0,1.317234576E0,2.363114550E1,-6.949691792E0,2.466707037E1
5.977042917E0,1.642373095E0,2.154624124E1,-5.488119428E0,2.229478315E1
5.987104917E0,2.305330991E0,2.153436437E1,-4.023906462E0,2.202805536E1
5.997167917E0,3.308583535E0,2.279738166E1,-2.889337295E0,2.321670962E1
6.007229917E0,4.151680696E0,2.324459543E1,-2.204327796E0,2.371511607E1
6.017291917E0,4.059950454E0,2.144063584E1,-1.464631627E0,2.187073864E1
6.027354917E0,2.717417461E0,1.746956950E1,-9.257919931E-1,1.770387830E1
6.037416917E0,5.152788627E-1,1.270535993E1,-7.330572402E-1,1.273691706E1
6.047478917E0,-1.713586189E0,8.110495661E0,-6.446134257E-1,8.314568176E0
6.057541917E0,-3.261797039E0,3.992611579E0,-4.310216546E-2,5.155785579E0
6.067603917E0,-4.504964495E0,-3.021466827E-1,6.167549515E-1,4.557014855E0
6.077665917E0,-5.098678493E0,-4.236194304E0,1.248595719E0,6.745432220E0
6.087728917E0,-4.804495134E0,-7.498961104E0,1.689895025E0,9.064950983E0
6.097790917E0,-4.087321562E0,-1.046208149E1,1.799543767E0,1.137539909E1
6.107853917E0,-3.062493816E0,-1.272308752E1,1.418845589E0,1.316316630E1
6.117915917E0,-2.083352704E0,-1.446171967E1,7.556655727E-1,1.463054082E1
6.127977917E0,-1.464345698E0,-1.641628131E1,5.362715364E-2,1.648154957E1
6.138040917E0,-5.377926895E-1,-1.740625585E1,-7.282964373E-1,1.742978426E1
6.148102917E0,5.659704217E-1,-1.749739055E1,-9.570272344E-1,1.753268091E1
6.158164917E0,1.217729437E0,-1.630632910E1,-1.771003946E-1,1.635269391E1
6.168227917E0,7.380580714E-1,-1.364994838E1,5.016870099E-1,1.367909026E1
6.178289917E0,2.496831433E-1,-1.164325764E1,7.618636212E-1,1.167082801E1
6.188351917E0,-2.399831972E-1,-1.034375840E1,6.673520780E-1,1.036804170E1
6.198414917E0,-8.749200475E-1,-9.465937552E0,-1.681495865E-1,9.507772247E0
6.208476917E0,-1.511472794E0,-8.675879315E0,-1.696411747E0,8.968458324E0
6.218539917E0,-1.889164918E0,-7.755317656E0,-3.315857179E0,8.643425528E0
6.228601917E0,-1.882180712E0,-6.806025118E0,-4.519384314E0,8.383878382E0
6.238663917E0,-1.410665919E0,-6.067795431E0,-4.592050002E0,7.739188778E0
6.248726917E0,-5.014455565E-1,-6.019168816E0,-3.294171610E0,6.879927869E0
6.258788917E0,3.764180160E-1,-6.755316310E0,-1.374901425E0,6.904081611E0
6.268850917E0,1.014777260E0,-7.723534530E0,3.541705298E-1,7.797960970E0
6.278913917E0,1.379363435E0,-8.701168522E0,1.199128202E0,8.891056494E0
6.288975917E0,1.493571251E0,-9.500994533E0,1.111042895E0,9.681635632E0
6.299037917E0,1.463952180E0,-1.006970876E1,6.715573955E-1,1.019770464E1
6.309100917E0,1.347511312E0,-1.043132630E1,-2.762633979E-2,1.051803777E1
6.319162917E0,1.212256736E0,-1.075554857E1,-6.083419045E-1,1.084073204E1
6.329224917E0,1.224548460E0,-1.092453544E1,-9.559466690E-1,1.103443825E1
6.339287458E0,1.281928942E0,-1.119818513E1,-1.227572640E0,1.133797277E1
6.349349458E0,1.290213861E0,-1.149861741E1,-1.514776763E0,1.166950739E1
6.359412458E0,1.257570903E0,-1.166792705E1,-1.725965914E0,1.186174374E1
6.369474458E0,1.016210120E0,-1.172177990E1,-1.787993177E0,1.190082882E1
6.379536458E0,6.371178800E-1,-1.170779453E1,-1.701334518E0,1.184790746E1
6.389599458E0,4.536565188E-1,-1.141055366E1,-1.475760632E0,1.151453032E1
6.399661458E0,5.329675671E-1,-1.094692092E1,-1.246636902E0,1.103055917E1
6.409723458E0,8.319073445E-1,-1.034318888E1,-1.069276233E0,1.043153765E1
6.419786458E0,1.292599087E0,-9.669382650E0,-1.006985260E0,9.807231645E0
6.429848458E0,1.771709559E0,-8.654603051E0,-8.224442106E-1,8.872289626E0
6.439910458E0,1.987943687E0,-6.292250159E0,-2.661389440E-1,6.604177625E0
6.449973458E0,1.607883001E0,-2.973302143E0,6.747417891E-1,3.446895684E0
6.460035458E0,9.026525143E-1,-4.253831846E-1,1.541089818E0,1.835943965E0
6.470097458E0,-9.740576886E-2,1.968835863E0,2.401285408E0,3.106762647E0
6.480160458E0,-6.632849009E-1,7.687656015E0,1.537836428E0,7.867969417E0
6.490222458E0,1.612705931E-2,1.855097461E1,-4.539544344E-2,1.855103716E1
6.500285458E0,2.218117430E0,2.858750510E1,-5.535980789E-1,2.867877201E1
6.510347458E0,4.411939095E0,3.130886943E1,-9.670370098E-1,3.163298393E1
6.520409458E0,3.637843464E0,2.535048652E1,-1.787395592E0,2.567247270E1
6.530472458E0,2.859391365E0,1.918148221E1,-3.080890911E0,1.963663076E1
6.540534458E0,4.510610859E0,1.921372844E1,-4.034308366E0,2.014419556E1
6.550596458E0,6.352397543E0,2.145733549E1,-5.045243129E0,2.293958760E1
6.560659458E0,6.203160812E0,2.434689381E1,-4.657410178E0,2.555272807E1
6.570721458E0,4.730489556E0,2.522858377E1,-4.112200588E0,2.599556047E1
6.580783458E0,3.982553784E0,2.415618103E1,-4.307158452E0,2.485826684E1
6.590846458E0,3.256981564E0,2.273238869E1,-4.188689185E0,2.334340467E1
6.600908458E0,2.110627919E0,2.097005661E1,-3.946799229E0,2.144237040E1
6.610971458E0,8.783675659E-1,1.899076943E1,-3.383312413E0,1.930978135E1
6.621033458E0,-1.326597284E-1,1.682977769E1,-2.549524019E0,1.702231149E1
6.631095458E0,-8.620797081E-1,1.454959162E1,-1.566725181E0,1.465907315E1
6.641158458E0,-1.512946146E0,1.174575583E1,-3.023396591E-1,1.184665333E1
6.651220458E0,-1.944654118E0,8.328062954E0,6.080671585E-1,8.573684032E0
6.661282458E0,-2.071965252E0,4.625244645E0,9.257428765E-1,5.151982910E0
6.671345458E0,-2.078505947E0,1.014842749E0,1.017153568E0,2.526795235E0
6.681407458E0,-2.141663770E0,-2.556999684E0,9.745975327E-1,3.474882939E0
6.691469458E0,-1.780743799E0,-5.645512440E0,6.284400272E-1,5.952965316E0
6.701532458E0,-1.326849006E0,-8.381042821E0,4.077778029E-1,8.495215700E0
6.711594458E0,-8.855865383E-1,-1.076267749E1,5.398172879E-1,1.081253407E1
6.721656458E0,-2.831599695E-1,-1.270419399E1,7.140836102E-1,1.272739722E1
6.731719458E0,1.857148416E-1,-1.482478732E1,6.641274116E-1,1.484081785E1
6.741781458E0,5.090462425E-1,-1.641510836E1,1.417768532E-1,1.642361139E1
6.751844458E0,9.805307025E-1,-1.663587583E1,-2.625762355E-1,1.666681587E1
6.761906458E0,1.253667009E0,-1.647416290E1,-2.708447101E-1,1.652401528E1
6.771968458E0,9.856827573E-1,-1.513204330E1,1.397653745E-1,1.516475649E1
6.782031458E0,4.466514813E-1,-1.226514060E1,5.076312528E-1,1.228376412E1
6.792093458E0,-6.371243119E-2,-1.024483989E1,4.568534839E-1,1.025521909E1
6.802155458E0,-5.091918747E-1,-8.882170837E0,1.278581411E-1,8.897672889E0
6.812218458E0,-9.198963918E-1,-8.022761114E0,-3.244625813E-1,8.081842687E0
6.822280458E0,-1.268470405E0,-7.605944100E0,-8.709088576E-1,7.760018367E0
6.832342458E0,-1.491104311E0,-7.341272807E0,-1.597809564E0,7.659678446E0
6.842405458E0,-1.621483186E0,-7.218111150E0,-2.165466616E0,7.708409820E0
6.852467458E0,-1.742476404E0,-7.641872317E0,-2.037526029E0,8.098515224E0
6.862529458E0,-1.818954476E0,-8.542249972E0,-1.324970881E0,8.833695591E0
6.872592458E0,-1.699526412E0,-9.586589000E0,-8.739868319E-1,9.775220287E0
6.882654458E0,-1.432790614E0,-1.048539083E1,-8.258209777E-1,1.061500307E1
6.892717458E0,-1.119440958E0,-1.110456887E1,-9.961241303E-1,1.120521580E1
6.902779458E0,-6.895939361E-1,-1.131634332E1,-1.214171407E0,1.140216551E1
6.912841458E0,-2.568396053E-1,-1.129922268E1,-1.279881831E0,1.137437898E1
6.922904458E0,1.043732745E-1,-1.117843090E1,-1.264432318E0,1.125020001E1
6.932966458E0,4.624602328E-1,-1.098534765E1,-1.059811345E0,1.104603696E1
6.943028458E0,9.182638492E-1,-1.076878549E1,-7.682528007E-1,1.083513552E1
6.953091458E0,1.333674607E0,-1.052605003E1,-3.388391304E-1,1.061561252E1
6.963153458E0,1.421092528E0,-1.059068983E1,1.901029029E-1,1.068729873E1
6.973215458E0,1.366735642E0,-1.053929748E1,3.585834235E-1,1.063359487E1
6.983278458E0,1.152799762E0,-1.030774657E1,7.307762414E-1,1.039772189E1
6.993340458E0,6.967766558E-1,-1.005759684E1,1.114737750E0,1.014314508E1
7.003403458E0,-1.481239327E-1,-9.749029913E0,6.762749290E-1,9.773580343E0
7.013465458E0,-1.443508999E0,-8.454656342E0,9.545345664E-2,8.577531315E0
7.023527458E0,-2.584018498E0,-5.672082773E0,-2.725106732E-1,6.238905084E0
7.033590458E0,-3.037470364E0,-2.614633350E0,-1.226784436E0,4.191364195E0
7.043652458E0,-3.369791311E0,4.352790123E-1,-2.234207067E0,4.066527083E0
7.053714458E0,-2.792523776E0,5.058538527E0,-3.490843878E0,6.750777144E0
7.063777458E0,-1.018256353E0,1.126645488E1,-4.431597726E0,1.214944073E1
7.073839458E0,2.969809308E0,1.750086380E1,-3.427578174E0,1.807894613E1
7.083901458E0,8.494432027E0,2.188673396E1,7.931138460E-1,2.349071153E1
7.093964458E0,1.033754164E1,2.054483071E1,4.876514704E0,2.351032181E1
7.104026458E0,7.336824245E0,1.628762502E1,4.662417734E0,1.846222787E1
7.114088458E0,5.130269246E0,1.625193946E1,2.040703113E-1,1.704367459E1
7.124151458E0,4.335392902E0,1.764620453E1,-4.762695143E0,1.878476593E1
7.134213458E0,4.262526070E0,1.910095202E1,-6.557316724E0,2.064010415E1
7.144276458E0,3.988897720E0,1.907836423E1,-5.494782915E0,2.025062779E1
7.154338458E0,3.759869592E0,1.815558238E1,-5.155492380E0,1.924424310E1
7.164400458E0,3.332480813E0,1.856846480E1,-5.990891097E0,1.979353656E1
7.174463458E0,2.800991422E0,2.021355788E1,-6.173432983E0,2.132005511E1
7.184525458E0,2.661882945E0,2.212425488E1,-5.424975346E0,2.293466006E1
7.194587458E0,3.153322125E0,2.298802896E1,-4.527044166E0,2.364079197E1
7.204650458E0,4.118648897E0,2.250134415E1,-4.026094198E0,2.322677747E1
7.214712458E0,4.815658053E0,2.108526546E1,-3.719481704E0,2.194569494E1
7.224774458E0,4.471429836E0,1.861762819E1,-2.949408081E0,1.937288756E1
7.234837458E0,3.265007745E0,1.628318815E1,-1.576160249E0,1.668192954E1
7.244899458E0,1.363918307E0,1.377584127E1,2.232591189E-2,1.384321402E1
7.254961458E0,-6.663739119E-1,1.097438880E1,1.236938710E0,1.106396317E1
7.265024458E0,-2.607291001E0,7.682470704E0,1.632135644E0,8.275396622E0
7.275086458E0,-4.295387422E0,3.988877547E0,1.512553067E0,6.053867688E0
7.285149458E0,-5.279439318E0,5.351605654E-1,1.463236481E0,5.504537887E0
7.295211458E0,-5.429225103E0,-2.963417425E0,1.332989752E0,6.327336701E0
7.305273458E0,-4.773294099E0,-6.552800335E0,9.854347622E-1,8.166676830E0
7.315336458E0,-3.270233109E0,-9.379274215E0,4.770514844E-1,9.944485281E0
7.325398458E0,-1.727951482E0,-1.210035671E1,-6.564739180E-1,1.224072738E1
7.335460667E0,-6.044815362E-1,-1.494715551E1,-1.961466032E0,1.508741876E1
7.345523667E0,9.608694398E-1,-1.593221020E1,-3.277909918E0,1.629427156E1
7.355585667E0,2.746321125E0,-1.636251382E1,-3.990807713E0,1.706460326E1
7.365647667E0,3.655128126E0,-1.702930924E1,-2.908064758E0,1.765826083E1
7.375710667E0,3.272709697E0,-1.752013856E1,-5.048878123E-1,1.783033358E1
7.385772667E0,1.587376378E0,-1.700351484E1,1.748408112E0,1.716671813E1
7.395835667E0,-2.689145077E-1,-1.411539727E1,2.786652587E0,1.439035051E1
7.405897667E0,-6.869748951E-1,-1.048245085E1,3.079323272E0,1.094696041E1
7.415959667E0,-9.290613176E-1,-8.639283346E0,3.287211669E0,9.290109376E0
7.426022667E0,-1.628725255E0,-7.910161867E0,3.082654431E0,8.644429712E0
7.436084667E0,-2.419060066E0,-7.358945432E0,1.978836941E0,7.995106322E0
7.446146667E0,-3.039453155E0,-6.791152725E0,2.684153382E-2,7.440346181E0
7.456209667E0,-3.192157870E0,-6.412412780E0,-2.712649056E0,7.659463064E0
7.466271667E0,-2.531829467E0,-5.679487102E0,-5.234232155E0,8.127971484E0
7.476333667E0,-1.382404572E0,-5.511149856E0,-5.596062537E0,7.974943954E0
7.486396667E0,-2.823601435E-1,-6.435175406E0,-3.733917310E0,7.445357495E0
7.496458667E0,7.496737115E-1,-7.820546855E0,-2.014261712E0,8.110500233E0
7.506520667E0,1.422476564E0,-8.985322738E0,-1.133192732E0,9.167529113E0
7.516583667E0,1.939746842E0,-9.779326091E0,-2.471285496E-1,9.972908760E0
7.526645667E0,2.601027756E0,-1.054744733E1,-7.994971052E-3,1.086342738E1
7.536707667E0,3.151365939E0,-1.110635344E1,-4.047911183E-1,1.155188512E1
7.546770667E0,3.175892962E0,-1.130301869E1,-8.989468414E-1,1.177508527E1
7.556832667E0,2.813333724E0,-1.111446002E1,-1.170703790E0,1.152460913E1
7.566895667E0,2.308640515E0,-1.112032127E1,-1.107868441E0,1.141134254E1
7.576957667E0,1.763215016E0,-1.115760428E1,-1.443969905E0,1.138798093E1
7.587019667E0,8.338250850E-1,-1.106585562E1,-1.712571112E0,1.122859407E1
7.597082667E0,-1.551257725E-1,-1.103367138E1,-2.058702305E0,1.122516028E1
7.607144667E0,-1.102170622E0,-1.090210786E1,-2.192711717E0,1.117491479E1
7.617206667E0,-1.979709637E0,-1.067597965E1,-1.841458363E0,1.101302687E1
7.627269667E0,-2.379591068E0,-1.054636793E1,-1.388475151E0,1.090028410E1
7.637331667E0,-2.471052046E0,-1.056661567E1,-1.263655223E0,1.092503041E1
7.647393667E0,-2.326189032E0,-1.026287036E1,-1.832573519E0,1.068157241E1
7.657456667E0,-1.934184971E0,-9.242734128E0,-2.098298480E0,9.673265331E0
7.667518667E0,-1.742185944E0,-6.745885921E0,-3.418831909E-1,6.975605553E0
7.677580667E0,-1.757673171E0,-2.502773775E0,2.149249363E0,3.737989349E0
7.687643667E0,-1.075002265E0,1.888479917E0,4.054540025E0,4.600139246E0
7.697705667E0,1.316878773E0,5.681302662E0,2.710613641E0,6.431080465E0
7.707768667E0,4.236259793E0,9.378521678E0,-3.249895324E0,1.079186664E1
7.717830667E0,7.423198730E0,2.148703701E1,-6.439840314E0,2.362769947E1
7.727892667E0,1.135761648E1,3.259724025E1,-4.342384418E0,3.479126078E1
7.737955667E0,9.057689048E0,2.333378886E1,5.842608047E-1,2.503694857E1
7.748017667E0,3.456009091E0,1.454257380E1,3.024800910E0,1.525056956E1
7.758079667E0,1.685105863E0,1.325221843E1,6.060323274E-1,1.337266429E1
7.768142667E0,1.259644910E0,1.453055426E1,-3.080515519E0,1.490682019E1
7.778204667E0,6.437400710E-1,1.586043914E1,-3.841200854E0,1.633164888E1
7.788266667E0,5.012727347E-1,1.596022772E1,-3.843349121E0,1.642411263E1
7.798329667E0,4.544464776E-1,1.466243119E1,-3.669442402E0,1.512144893E1
7.808391667E0,7.785925783E-1,1.281491453E1,-2.702298900E0,1.311985747E1
7.818453667E0,1.482862806E0,1.207589079E1,-1.799602239E0,1.229896698E1
7.828516667E0,2.328053709E0,1.234239402E1,-1.276788654E0,1.262476587E1
7.838578667E0,3.118779699E0,1.256600791E1,-1.136973396E0,1.299707853E1
7.848641667E0,3.537086583E0,1.201022422E1,-1.226644102E0,1.258018772E1
7.858703667E0,3.384598800E0,1.062526558E1,-1.269238729E0,1.122331256E1
7.868765667E0,2.751185716E0,8.712099307E0,-1.136290587E0,9.206565781E0
7.878828667E0,2.069971351E0,6.681220393E0,-1.056968429E0,7.073943002E0
7.888890667E0,1.618785574E0,4.671838183E0,-1.105710819E0,5.066471667E0
7.898952667E0,1.221812475E0,2.847296984E0,-9.305212212E-1,3.235088188E0
7.909015667E0,7.659520675E-1,1.183331437E0,-4.589584816E-1,1.482430014E0
7.919077667E0,3.697573795E-1,-2.743063349E-1,-4.799385471E-3,4.604210238E-1
7.929139667E0,6.897141695E-2,-1.477921178E0,2.441586757E-1,1.499540438E0
7.939202667E0,-3.583200795E-1,-2.627746900E0,3.652697146E-1,2.677100860E0
7.949264667E0,-8.212434118E-1,-3.661346347E0,4.676205468E-1,3.781344575E0
7.959326667E0,-1.334172644E0,-4.561305342E0,5.695246518E-1,4.786426788E0
7.969389667E0,-1.744176774E0,-5.332891055E0,4.513576859E-1,5.628996659E0
7.979451667E0,-2.037851426E0,-5.930126832E0,1.710947559E-1,6.272839556E0
7.989514667E0,-2.055446575E0,-6.367811388E0,-2.587919541E-1,6.696331516E0
7.999576667E0,-1.917646413E0,-6.845934704E0,-7.288304342E-1,7.146704383E0
8.009638667E0,-1.725251384E0,-7.258313681E0,-1.050635310E0,7.534151869E0
8.019701667E0,-1.542822348E0,-7.587738794E0,-1.167461436E0,7.830520226E0
8.029763667E0,-1.275568048E0,-7.867718098E0,-1.346206799E0,8.083336851E0
8.039825667E0,-9.793475184E-1,-8.072905081E0,-1.432609935E0,8.257317315E0
8.049888667E0,-6.229617709E-1,-8.034532728E0,-1.377250836E0,8.175488817E0
8.059950667E0,-1.016131877E-1,-7.586317336E0,-1.269756793E0,7.692517031E0
8.070012667E0,3.431424253E-1,-6.984813677E0,-9.950821564E-1,7.063678739E0
8.080075667E0,4.555223653E-1,-6.327240483E0,-5.369609962E-1,6.366301898E0
8.090137667E0,3.632114581E-1,-5.669459127E0,-3.508381286E-1,5.691904492E0
8.100199667E0,1.824758130E-1,-4.899761479E0,-2.602665854E-1,4.910060964E0
8.110262667E0,-6.581202015E-2,-3.913306378E0,1.690699017E-1,3.917509753E0
8.120324667E0,-2.107935861E-1,-2.864411784E0,7.479530221E-1,2.967949213E0
8.130386667E0,-1.880549338E-1,-1.614575286E0,1.287715931E0,2.073747895E0
8.140449667E0,-1.014976869E-1,-3.156110662E-1,1.803758440E0,1.833972910E0
8.150511667E0,2.759579175E-1,8.269529986E-1,1.977623643E0,2.161249479E0
8.160574667E0,5.157106796E-1,1.727687334E0,1.626587806E0,2.428301653E0
8.170636667E0,5.534891014E-1,2.194330226E0,9.153488660E-1,2.441167523E0
8.180698667E0,5.317006582E-1,2.421143137E0,2.230273499E-1,2.488851317E0
8.190761667E0,5.095783391E-1,2.641246367E0,-1.981353509E-1,2.697241197E0
8.200823667E0,7.689300545E-1,3.009016936E0,-3.081254973E-1,3.120957813E0
8.210885667E0,1.109758261E0,3.416686565E0,-1.847924799E-1,3.597145917E0
8.220948667E0,1.346008286E0,3.674784418E0,2.044712842E-1,3.918875774E0
8.231010667E0,1.351378368E0,3.561023914E0,8.216835610E-1,3.896444365E0
8.241072667E0,1.015131309E0,2.885556486E0,1.457358275E0,3.388336015E0
8.251135667E0,4.777293594E-1,2.019863929E0,1.730526742E0,2.702369042E0
8.261197667E0,-5.434588607E-2,1.177235130E0,1.665951846E0,2.040644893E0
8.271259667E0,-5.098761451E-1,3.623285651E-1,1.264694273E0,1.410924264E0
8.281322667E0,-8.149919343E-1,-3.824155051E-1,6.781600714E-1,1.127100064E0
8.291384667E0,-1.027156985E0,-1.072982199E0,1.667561585E-1,1.494707291E0
8.301447667E0,-1.204870825E0,-1.761132823E0,-9.823322296E-2,2.136106807E0
8.311509667E0,-1.365532139E0,-2.508574798E0,-1.566095217E-1,2.860446133E0
8.321571667E0,-1.512265969E0,-3.322607204E0,-1.120268047E-1,3.652289282E0
8.331634667E0,-1.623232966E0,-4.140264884E0,-1.216495675E-1,4.448761310E0
8.341696833E0,-1.625615706E0,-4.830283694E0,-3.722297285E-1,5.110070641E0
8.351758833E0,-1.608968391E0,-5.398290408E0,-6.845242540E-1,5.674406759E0
8.361821833E0,-1.644005492E0,-5.649320147E0,-7.487405690E-1,5.931120014E0
8.371883833E0,-1.615588901E0,-5.420450186E0,-1.269032323E0,5.796710339E0
8.381945833E0,-1.687790904E0,-5.162437702E0,-2.993391421E0,6.201596034E0
8.392008833E0,-1.573328150E0,-4.883651816E0,-3.850557568E0,6.414998839E0
8.402070833E0,-5.949176475E-1,-4.381545560E0,-3.743158835E0,5.793367463E0
8.412132833E0,7.521785125E-1,-4.201274732E0,-2.706560351E0,5.053904513E0
8.422195833E0,2.065511972E0,-4.390059691E0,-2.940027173E-1,4.860596815E0
8.432257833E0,2.916083337E0,-5.130807774E0,2.082098184E0,6.258103809E0
8.442319833E0,3.144633455E0,-6.168839411E0,2.987296284E0,7.541036953E0
8.452382833E0,2.927193924E0,-7.004206553E0,2.048939209E0,7.862920932E0
8.462444833E0,2.369011116E0,-7.513161651E0,-8.138961661E-1,7.919737283E0
8.472507833E0,1.465215179E0,-7.304207307E0,-3.483144849E0,8.223782460E0
8.482569833E0,1.489923173E-1,-6.258703514E0,-5.191852705E0,8.133197581E0
8.492631833E0,-7.179894041E-1,-3.654057793E0,-5.472826620E0,6.619628264E0
8.502694833E0,-1.423530378E0,-9.098530680E-1,-4.302798768E0,4.622591111E0
8.512756833E0,-1.869295641E0,1.607442852E0,-2.834058888E0,3.756331787E0
8.522818833E0,-2.355241800E0,4.392310869E0,-5.827287611E-1,5.017881178E0
8.532881833E0,-1.408450555E0,7.457271625E0,1.841191145E0,7.809264875E0
8.542943833E0,1.140392263E0,1.032790660E1,3.693225367E0,1.102751390E1
8.553005833E0,3.422096409E0,1.220624745E1,4.836523257E0,1.356816781E1
8.563068833E0,4.471793826E0,1.335468972E1,4.728564945E0,1.485610999E1
8.573130833E0,3.933986226E0,1.388348150E1,2.066816486E0,1.457734669E1
8.583192833E0,3.319797325E0,1.463008440E1,-3.252741748E0,1.535059453E1
8.593255833E0,3.779848943E0,1.667957675E1,-9.181506178E0,1.941122341E1
8.603317833E0,4.202132519E0,1.980939833E1,-1.107204432E1,2.307943555E1
8.613379833E0,4.613025134E0,2.245682813E1,-7.902578613E0,2.424953359E1
8.623442833E0,6.011551648E0,2.332234468E1,-5.042375654E0,2.460682968E1
8.633504833E0,7.669768213E0,2.254970296E1,-4.889366884E0,2.431502327E1
8.643567833E0,8.448143129E0,2.207006756E1,-5.458850605E0,2.425403171E1
8.653629833E0,7.955518718E0,2.168369758E1,-4.531673992E0,2.353739765E1
8.663691833E0,6.494331686E0,2.083721722E1,-2.249028590E0,2.194137861E1
8.673754833E0,4.041272985E0,1.897156483E1,1.491519463E-1,1.939779384E1
8.683816833E0,1.146872074E0,1.605400069E1,1.867121792E0,1.620285152E1
8.693878833E0,-1.604395283E0,1.149100433E1,2.482027270E0,1.186497890E1
8.703941833E0,-3.788292615E0,5.987399724E0,2.021240364E0,7.367871402E0
8.714003833E0,-5.374871725E0,8.885949308E-1,1.800874009E0,5.737769096E0
8.724065833E0,-5.094365587E0,-2.731232092E0,1.617067369E0,6.002257605E0
8.734128833E0,-3.581624240E0,-5.798209553E0,8.526350661E-1,6.868351533E0
8.744190833E0,-1.903042408E0,-8.885644083E0,-2.295741118E-2,9.087176031E0
8.754252833E0,-6.313905323E-1,-1.202133510E1,-2.691338148E-1,1.204091295E1
8.764315833E0,1.645821820E-1,-1.522074205E1,5.149513455E-1,1.523033981E1
8.774377833E0,1.425545036E0,-1.640640536E1,2.446311892E0,1.664892661E1
8.784439833E0,2.847272426E0,-1.740405730E1,4.764335287E0,1.826765068E1
8.794502833E0,3.216602447E0,-1.790309025E1,6.682628403E0,1.937845954E1
8.804564833E0,2.592800431E0,-1.803310076E1,6.187717146E0,1.924066476E1
8.814627833E0,1.087914526E0,-1.746709028E1,3.760699897E0,1.790043755E1
8.824689833E0,-1.753103426E-1,-1.432290677E1,1.904479069E0,1.445003227E1
8.834751833E0,-4.835687910E-1,-1.159124900E1,1.398104346E0,1.168527226E1
8.844814833E0,-1.350924332E0,-9.851192465E0,1.222634155E0,1.001827449E1
8.854876833E0,-3.121869367E0,-8.030442601E0,2.148406633E-1,8.618598101E0
8.864938833E0,-5.127963688E0,-6.749463832E0,-1.393235369E0,8.590249030E0
8.875001833E0,-6.766103253E0,-6.441851757E0,-3.373701344E0,9.932747256E0
8.885063833E0,-7.564270409E0,-6.528106374E0,-5.881504894E0,1.159424251E1
8.895125833E0,-7.023857875E0,-6.301426195E0,-7.546163337E0,1.208251351E1
8.905188833E0,-4.440400417E0,-5.895608963E0,-7.263274459E0,1.035521689E1
8.915250833E0,-1.578989131E0,-6.092629725E0,-5.394405518E0,8.289327750E0
8.925312833E0,5.451106992E-1,-6.308791348E0,-1.854487129E0,6.598266170E0
8.935375833E0,1.738004015E0,-6.674194964E0,1.670613685E0,7.096230440E0
8.945437833E0,2.412716422E0,-7.161342872E0,2.868610670E0,8.083004357E0
8.955499833E0,2.803066306E0,-8.310488563E0,1.899422981E0,8.973806802E0
8.965562833E0,3.127133908E0,-9.080929391E0,1.231873267E0,9.682962193E0
8.975624833E0,2.679860795E0,-9.707005974E0,4.495163612E-1,1.008016289E1
8.985687833E0,1.983624641E0,-1.020479465E1,-5.775873774E-1,1.041183018E1
8.995749833E0,1.262685170E0,-1.094665428E1,-1.563274739E0,1.112957509E1
9.005811833E0,7.629499608E-1,-1.192776912E1,-2.534964452E0,1.221801185E1
9.015874833E0,1.654253322E-1,-1.285401720E1,-3.354988500E0,1.328567166E1
9.025936833E0,-4.149456488E-1,-1.348991477E1,-3.734566936E0,1.400346280E1
9.035998833E0,-9.627344093E-1,-1.365040212E1,-3.878841720E0,1.422342254E1
9.046061833E0,-1.271013067E0,-1.341587849E1,-3.247183385E0,1.386165466E1
9.056123833E0,-9.359527729E-1,-1.272102696E1,-2.095575578E0,1.292640598E1
9.066185833E0,-1.705033466E-1,-1.184400776E1,-6.393076622E-1,1.186247468E1
9.076248833E0,2.449179366E-1,-1.121197871E1,9.047659904E-1,1.125109119E1
9.086310833E0,3.867696342E-1,-1.074661285E1,2.378960738E0,1.101357039E1
9.096372833E0,3.562927768E-1,-1.047059854E1,3.649308100E0,1.109404471E1
9.106435833E0,8.480706565E-2,-9.990417008E0,4.107052699E0,1.080201398E1
9.116497833E0,-5.335320427E-1,-8.632322236E0,3.046191194E0,9.169565116E0
9.126559833E0,-1.153038475E0,-5.087471135E0,1.116769073E0,5.334700876E0
9.136622833E0,-2.165973862E0,-1.880827081E-1,-3.813039494E-1,2.207308446E0
9.146684833E0,-2.092258452E0,3.941960658E0,-1.894126135E0,4.848124697E0
9.156746833E0,3.129356727E-1,9.250044317E0,-4.056286004E0,1.010518207E1
9.166809833E0,3.102358671E0,1.492870053E1,-5.414009478E0,1.618030369E1
9.176871833E0,5.804269608E0,2.168720591E1,-1.502509890E0,2.250071070E1
9.186934833E0,8.784984850E0,3.024083573E1,3.576054182E0,3.169341049E1
9.196996833E0,9.080030674E0,2.277819344E1,3.477120463E0,2.476657869E1
9.207058833E0,4.206260361E0,1.297178012E1,2.077948415E-1,1.363828745E1
9.217121833E0,2.919957994E0,1.199381693E1,-3.372010329E0,1.279641563E1
9.227183833E0,1.832030751E0,1.260590698E1,-4.102221730E0,1.338258011E1
9.237245833E0,1.480040355E0,1.315564465E1,-3.213524473E0,1.362307767E1
9.247308833E0,2.110204288E0,1.354168367E1,-3.075966386E0,1.404605739E1
9.257370833E0,2.822459182E0,1.337778856E1,-3.787137790E0,1.418710383E1
9.267432833E0,3.284616382E0,1.312798966E1,-3.494099607E0,1.397646412E1
9.277495833E0,3.731020892E0,1.315836360E1,-2.567470585E0,1.391599637E1
9.287557833E0,4.058675761E0,1.312827851E1,-2.661766001E0,1.399676905E1
9.297619833E0,4.123496239E0,1.263716853E1,-3.516250030E0,1.375010051E1
9.307682833E0,4.144773088E0,1.189601056E1,-3.681928546E0,1.312443557E1
9.317744833E0,4.076676999E0,1.115757505E1,-3.157494113E0,1.229148263E1
9.327806833E0,3.855905432E0,1.053559736E1,-2.671875837E0,1.153281141E1
9.337870208E0,3.264878229E0,9.683822933E0,-2.119724432E0,1.043690989E1
9.347932208E0,2.472890703E0,8.594556824E0,-1.498395642E0,9.067898595E0
9.357995208E0,1.757032170E0,7.302136808E0,-1.231264426E0,7.610806534E0
9.368057208E0,1.257715622E0,5.946215445E0,-1.176177807E0,6.190534786E0
9.378119208E0,9.932938586E-1,4.701232721E0,-1.001228092E0,4.908225695E0
9.388182208E0,9.881429002E-1,3.501330274E0,-6.202303903E-1,3.690586108E0
9.398244208E0,1.086257863E0,2.358987819E0,-1.489962642E-1,2.601341877E0
9.408306208E0,1.135691978E0,1.057730321E0,4.094571233E-1,1.605068484E0
9.418369208E0,1.027501532E0,-1.470487028E-1,8.580262721E-1,1.346696626E0
9.428431208E0,7.457844360E-1,-1.371688380E0,1.069258107E0,1.892362633E0
9.438493208E0,2.509997718E-1,-2.865205252E0,8.533555162E-1,3.000102941E0
9.448556208E0,-3.837251352E-1,-4.397579795E0,4.340071698E-1,4.435573836E0
9.458618208E0,-9.031986442E-1,-5.765917135E0,-6.200387478E-3,5.836232231E0
9.468680208E0,-1.297381086E0,-6.910852246E0,-4.448538280E-1,7.045634917E0
9.478743208E0,-1.607465656E0,-7.919256626E0,-8.670309842E-1,8.127134432E0
9.488805208E0,-1.920345196E0,-8.742194341E0,-1.120998364E0,9.020550144E0
9.498867208E0,-2.170554278E0,-9.338540171E0,-1.311547428E0,9.676765734E0
9.508930208E0,-2.400588712E0,-9.411064357E0,-1.579353413E0,9.839985553E0
9.518992208E0,-2.387745595E0,-9.196445230E0,-1.827584674E0,9.675536142E0
9.529055208E0,-2.105023655E0,-8.591935517E0,-1.894748132E0,9.046687294E0
9.539117208E0,-1.792885250E0,-7.610719521E0,-1.519232926E0,7.965271987E0
9.549179208E0,-1.662233894E0,-6.371506244E0,-7.005057907E-1,6.621919789E0
9.559242208E0,-1.558312500E0,-5.311110177E0,5.560702085E-4,5.535000404E0
9.569304208E0,-1.331059586E0,-4.413056790E0,2.806031648E-1,4.617957123E0
9.579366208E0,-1.032217750E0,-3.631178808E0,3.223102212E-1,3.788775118E0
9.589429208E0,-7.133111930E-1,-2.913268780E0,3.020086884E-1,3.014491182E0
9.599491208E0,-3.057997307E-1,-2.208613805E0,1.905385387E-1,2.237809945E0
9.609553208E0,9.366011560E-2,-1.529147465E0,-4.821719277E-1,1.606098987E0
9.619616208E0,6.042767009E-1,-6.778028065E-1,-9.487779826E-1,1.313296096E0
9.629678208E0,1.306909416E0,4.051214129E-1,-5.846209931E-1,1.487923818E0
9.639740208E0,2.130382152E0,1.464909954E0,3.035739515E-1,2.603199269E0
9.649803208E0,2.799358587E0,2.251293216E0,1.246326415E0,3.802375465E0
9.659865208E0,3.065834038E0,2.387630990E0,1.606913095E0,4.205031484E0
9.669927208E0,2.793602295E0,1.739925556E0,1.244997928E0,3.518746164E0
9.679990208E0,2.178512046E0,7.399318117E-1,5.416919053E-1,2.363650554E0
9.690052208E0,1.454865899E0,-3.235118240E-1,-1.209127452E-1,1.495297488E0
9.700114208E0,7.269293582E-1,-1.279567251E0,-7.247109977E-1,1.640403814E0
9.710177208E0,4.247161634E-3,-2.060876300E0,-1.310451660E0,2.442235188E0
9.720239208E0,-6.084279317E-1,-2.594403153E0,-1.751887205E0,3.189078401E0
9.730302208E0,-1.003003014E0,-2.950265282E0,-2.047472727E0,3.728568740E0
9.740364208E0,-1.138814830E0,-3.352428589E0,-2.312746868E0,4.229003989E0
9.750426208E0,-1.127178579E0,-3.976846901E0,-2.523665292E0,4.843008294E0
9.760489208E0,-1.071536182E0,-4.653703043E0,-2.649176361E0,5.461069236E0
9.770551208E0,-9.110689965E-1,-5.262073088E0,-2.626164059E0,5.951150944E0
9.780613208E0,-8.782968146E-1,-5.880139570E0,-2.403867538E0,6.412957648E0
9.790676208E0,-9.464914289E-1,-6.246997388E0,-2.142070152E0,6.671528080E0
9.800738208E0,-1.131640297E0,-6.441229613E0,-1.882586508E0,6.805452274E0
9.810800208E0,-1.460033376E0,-6.810092441E0,-2.992972761E0,7.580695382E0
9.820863208E0,-1.656079700E0,-7.328100784E0,-5.309011611E0,9.199416578E0
9.830925208E0,-8.535464278E-1,-7.097998815E0,-6.304021189E0,9.531569222E0
9.840987208E0,-1.895762332E-2,-6.277040967E0,-5.122959056E0,8.102241183E0
9.851050208E0,2.805312806E-1,-4.911595075E0,-1.589080256E0,5.169878145E0
9.861112208E0,1.161094476E0,-3.094575149E0,2.028621304E0,3.878123275E0
9.871174208E0,2.281611760E0,-1.145188880E0,5.101498021E0,5.704602690E0
9.881237208E0,3.181076519E0,1.131751978E-1,6.924448192E0,7.621026126E0
9.891299208E0,4.560936382E0,1.204369719E0,5.757695950E0,7.443366830E0
9.901361208E0,4.820593688E0,2.301289834E0,3.288431983E0,6.272785929E0
9.911424208E0,3.470522172E0,2.588275271E0,1.200525906E0,4.492767018E0
9.921486208E0,1.954335499E0,2.760561726E0,-1.338967946E0,3.637714041E0
9.931549208E0,6.609593171E-1,3.398981781E0,-4.055286130E0,5.332475031E0
9.941611208E0,-7.128932633E-1,4.521627306E0,-5.526556685E0,7.176082433E0
9.951673208E0,-1.588961704E0,5.912334339E0,-5.893179445E0,8.497650299E0
9.961736208E0,-1.479964049E0,7.802111753E0,-5.318788741E0,9.557863520E0
9.971798208E0,1.451543511E-1,1.121132967E1,-4.104481094E0,1.193992244E1
9.981860208E0,3.180964252E0,1.540688232E1,-2.669094901E0,1.595664827E1
9.991923208E0,6.963144481E0,1.986983749E1,-1.614109994E0,2.111637218E1
1.000198521E1,1.127542568E1,2.452326922E1,-1.410505121E0,2.702804992E1
1.001204721E1,1.434482447E1,2.642563043E1,-2.060286316E0,3.013855857E1
1.002211021E1,1.363286048E1,2.396595941E1,-3.341874365E0,2.777391257E1
1.003217221E1,1.054218367E1,2.043039135E1,-3.868655870E0,2.331319423E1
1.004223421E1,7.789798687E0,1.838538497E1,-3.138702332E0,2.021273847E1
1.005229721E1,5.487150545E0,1.713299558E1,-1.981744176E0,1.809905159E1
1.006235921E1,3.460571088E0,1.578846693E1,-7.400376463E-1,1.618020074E1
1.007242121E1,1.743338576E0,1.395041457E1,3.909506857E-1,1.406435703E1
1.008248421E1,3.126915514E-2,1.151656836E1,1.466365911E0,1.160958886E1
1.009254621E1,-1.981091042E0,8.216870547E0,2.736461257E0,8.884250307E0
1.010260821E1,-3.968377502E0,4.441430989E0,3.843364908E0,7.088425992E0
1.011267121E1,-4.968538184E0,1.197964679E0,4.132905579E0,6.572853230E0
1.012273321E1,-4.372394083E0,-1.430321919E0,3.089980992E0,5.541807768E0
1.013279621E1,-3.320563310E0,-4.449945120E0,1.690900746E0,5.804075947E0
1.014285821E1,-2.487755494E0,-7.484252433E0,5.789648718E-1,7.908107371E0
1.015292021E1,-1.819955227E0,-1.023832960E1,-1.733401964E-1,1.040027292E1
1.016298321E1,-1.486663935E0,-1.319122379E1,-3.241368914E-1,1.327869042E1
1.017304521E1,-1.106830268E0,-1.538335312E1,-3.292461884E-1,1.542663377E1
1.018310721E1,-4.544336137E-1,-1.636828385E1,-4.136946005E-1,1.637981592E1
1.019317021E1,-4.865365818E-1,-1.744171103E1,-6.682022631E-2,1.744862362E1
1.020323221E1,-1.117789997E0,-1.811923492E1,3.125009688E-1,1.815637038E1
1.021329421E1,-2.287880414E0,-1.786903724E1,7.356054568E-1,1.802991969E1
1.022335721E1,-3.575188502E0,-1.548675528E1,5.193794785E-1,1.590255693E1
1.023341921E1,-3.773828650E0,-1.237322872E1,-4.445228390E-1,1.294357649E1
1.024348121E1,-3.327700422E0,-1.032311890E1,-1.771709851E0,1.098996496E1
1.025354421E1,-2.751203550E0,-8.704219015E0,-3.130601014E0,9.650555028E0
1.026360621E1,-2.098862444E0,-6.999549245E0,-3.971913021E0,8.317151330E0
1.027366821E1,-1.225079022E0,-5.286137304E0,-4.235690859E0,6.883686749E0
1.028373121E1,-5.671218116E-1,-3.908501136E0,-3.494644568E0,5.273570796E0
1.029379321E1,3.268768966E-2,-2.820904407E0,-1.561350421E0,3.224342614E0
1.030385521E1,1.545126736E-1,-3.017895348E0,1.062765359E0,3.203285299E0
1.031391821E1,-4.328671090E-1,-5.615512131E0,3.097053199E0,6.427525881E0
1.032398021E1,-7.699602608E-1,-8.161271127E0,3.320623244E0,8.844530736E0
1.033404321E1,-7.845388312E-1,-9.530729379E0,2.661969484E0,9.926549512E0
1.034410554E1,-6.009657881E-1,-1.048151062E1,1.760027114E0,1.064522992E1
1.035416754E1,8.397233907E-2,-1.087779279E1,5.987202746E-1,1.089458092E1
1.036423054E1,1.020960983E0,-1.112026513E1,-5.710449278E-1,1.118162556E1
1.037429254E1,1.744298689E0,-1.144132171E1,-1.066145707E0,1.162252499E1
1.038435454E1,2.204897607E0,-1.182040372E1,-1.202071252E0,1.208422496E1
1.039441754E1,2.440578404E0,-1.202593452E1,-1.469033411E0,1.235870475E1
1.040447954E1,2.217646583E0,-1.222603910E1,-1.883335537E0,1.256745564E1
1.041454154E1,1.571997323E0,-1.245909508E1,-2.398440152E0,1.278486375E1
1.042460454E1,8.321166748E-1,-1.263413733E1,-2.841974849E0,1.297654289E1
1.043466654E1,2.998301621E-1,-1.244750707E1,-2.627649837E0,1.272536342E1
1.044472854E1,1.984156884E-1,-1.186983842E1,-1.930275230E0,1.202740185E1
1.045479154E1,1.974622998E-1,-1.110797312E1,-1.187730297E0,1.117303725E1
1.046485354E1,-1.524312110E-1,-1.018987489E1,-9.523862994E-1,1.023542013E1
1.047491554E1,-5.258106483E-1,-8.797580338E0,-6.753007829E-1,8.839113518E0
1.048497854E1,-6.934021546E-1,-5.721409299E0,9.605618763E-1,5.842774173E0
1.049504054E1,-9.033436552E-1,-1.213362737E0,3.242137238E0,3.577671416E0
1.050510254E1,-1.229307217E0,2.008447241E0,6.417434953E0,6.835826792E0
1.051516554E1,-7.165607831E-1,2.139598534E0,5.990810405E0,6.401652173E0
1.052522754E1,8.026654190E-1,3.735206621E0,1.047355607E0,3.961438381E0
1.053528954E1,2.305239043E0,1.299616652E1,-3.554600748E0,1.366929617E1
1.054535254E1,4.750966213E0,2.312705236E1,-6.413288108E0,2.446553689E1
1.055541454E1,2.706191391E0,1.730042008E1,-5.543733466E0,1.836738924E1
1.056547654E1,-3.393807872E0,1.140383638E1,-5.516976607E-1,1.191091039E1
1.057553954E1,-5.944104016E0,1.179979696E1,3.130094061E0,1.357810995E1
1.058560154E1,-4.716255095E0,1.193037581E1,1.279560235E0,1.289240876E1
1.059566454E1,-8.915052362E-1,1.281644299E1,-2.844924184E0,1.315863162E1
1.060572654E1,3.412841436E0,1.425480776E1,-4.371198328E0,1.529556817E1
1.061578854E1,6.485468477E0,1.500364429E1,-3.612394627E0,1.673977414E1
1.062585154E1,7.757738403E0,1.479543079E1,-1.880677539E0,1.681143139E1
1.063591354E1,6.510555371E0,1.405891317E1,-1.045788699E0,1.552849139E1
1.064597554E1,3.494938975E0,1.405148603E1,-1.758019180E0,1.458593465E1
1.065603854E1,1.384675923E0,1.498312875E1,-3.486702880E0,1.544566514E1
1.066610054E1,9.559362902E-1,1.593917541E1,-4.929882241E0,1.671151896E1
1.067616254E1,2.162118792E0,1.668950181E1,-5.700280970E0,1.776815780E1
1.068622554E1,4.312296985E0,1.700801836E1,-5.873874278E0,1.850326979E1
1.069628754E1,6.129960689E0,1.688851531E1,-5.251786666E0,1.871843024E1
1.070634954E1,7.142197918E0,1.661930248E1,-3.933196267E0,1.851167845E1
1.071641254E1,7.367063121E0,1.622953761E1,-2.966018851E0,1.806844703E1
1.072647454E1,6.715011452E0,1.526273208E1,-2.697677261E0,1.689141296E1
1.073653654E1,5.416578745E0,1.369298973E1,-2.629788748E0,1.495837832E1
1.074659954E1,3.671868412E0,1.222609874E1,-2.016414657E0,1.292385531E1
1.075666154E1,1.780244447E0,1.097467531E1,-6.556167161E-1,1.113744144E1
1.076672354E1,-1.655083627E-2,9.115913867E0,7.947020960E-1,9.150503319E0
1.077678654E1,-1.880957620E0,6.517740430E0,1.562499983E0,6.961346714E0
1.078684854E1,-3.777798910E0,3.317891425E0,1.718344653E0,5.313461814E0
1.079691054E1,-5.011928033E0,2.363339317E-1,1.823600382E0,5.338613554E0
1.080697354E1,-5.254739510E0,-2.817564477E0,1.301539333E0,6.102865027E0
1.081703554E1,-4.947746655E0,-5.765721254E0,7.740731192E-1,7.636944921E0
1.082709854E1,-4.081992118E0,-8.221473475E0,5.559906864E-1,9.195891006E0
1.083716054E1,-2.799165044E0,-1.027435780E1,2.388955786E-1,1.065151746E1
1.084722254E1,-1.823867453E0,-1.274640855E1,-7.237917423E-2,1.287643826E1
1.085728554E1,-1.024190692E0,-1.407755409E1,-1.450179648E-1,1.411550658E1
1.086734754E1,-2.729465649E-2,-1.457462472E1,-2.411836123E-1,1.457664572E1
1.087740954E1,6.219124880E-1,-1.514840381E1,-3.197216588E-1,1.516453544E1
1.088747254E1,9.239814028E-1,-1.554204422E1,-1.196854877E-1,1.556994556E1
1.089753454E1,5.377327555E-1,-1.537077225E1,2.555683476E-1,1.538229864E1
1.090759654E1,-3.425583250E-1,-1.367040662E1,9.030726367E-1,1.370448480E1
1.091765954E1,-7.832962979E-1,-1.118744029E1,1.111522951E0,1.126977624E1
1.092772154E1,-1.151998255E0,-9.425602289E0,5.089685476E-1,9.509370509E0
1.093778354E1,-1.757116516E0,-8.534115325E0,-7.057706237E-1,8.741664316E0
1.094784654E1,-2.602616152E0,-8.156974009E0,-2.042052943E0,8.802261984E0
1.095790854E1,-3.231321058E0,-7.773562138E0,-3.014985774E0,8.942026801E0
1.096797054E1,-3.362310383E0,-7.404627973E0,-3.235466149E0,8.752250439E0
1.097803354E1,-2.932683290E0,-7.508493819E0,-2.565546559E0,8.459322660E0
1.098809554E1,-2.169448862E0,-8.157763383E0,-1.656447197E0,8.602292084E0
1.099815754E1,-1.393723319E0,-8.934313967E0,-9.735526353E-1,9.094626737E0
1.100822054E1,-7.248563010E-1,-9.623905345E0,-4.932395740E-1,9.663759932E0
1.101828254E1,-2.527318633E-1,-1.024038197E1,-3.305372536E-2,1.024355352E1
1.102834454E1,3.838148899E-2,-1.069128650E1,4.421413046E-1,1.070049387E1
1.103840754E1,1.653780428E-1,-1.097718377E1,7.528687763E-1,1.100421395E1
1.104846954E1,1.790274176E-1,-1.105395537E1,7.986103749E-1,1.108421213E1
1.105853254E1,9.946822800E-2,-1.096340188E1,6.525264627E-1,1.098325387E1
1.106859454E1,8.441500984E-2,-1.088005801E1,3.219909267E-1,1.088514889E1
1.107865654E1,4.509387329E-2,-1.086909448E1,-3.757069945E-2,1.086925295E1
1.108871954E1,-6.888867885E-2,-1.092885068E1,-1.094481826E-1,1.092961581E1
1.109878154E1,-2.911596183E-1,-1.101940300E1,-1.919366080E-1,1.102491978E1
1.110884354E1,-6.421235351E-1,-1.095465094E1,-6.080484474E-1,1.099028765E1
1.111890654E1,-1.016663352E0,-1.066390165E1,-1.368634379E0,1.079933159E1
1.112896854E1,-1.313420729E0,-1.022241815E1,-1.969029990E0,1.049285405E1
1.113903054E1,-1.278755804E0,-9.135107353E0,-2.059787548E0,9.451355855E0
1.114909354E1,-1.045472657E0,-7.085754161E0,-1.665196971E0,7.353489380E0
1.115915554E1,-8.811145878E-1,-4.603809922E0,-1.130462083E0,4.821760387E0
1.116921754E1,-9.518600500E-1,-2.740978231E0,-5.253840208E-2,2.902026792E0
1.117928054E1,-8.360579905E-1,1.050736467E0,2.260788510E0,2.629487549E0
1.118934254E1,2.365553950E-1,9.368589013E0,3.479653476E0,9.996719805E0
1.119940454E1,2.753678384E0,1.762208243E1,1.962219154E0,1.794354585E1
1.120946754E1,5.316903014E0,2.115330367E1,-4.887441250E-1,2.181675009E1
1.121952954E1,6.197856803E0,2.239558205E1,-1.853037312E0,2.331114051E1
1.122959154E1,5.261645656E0,2.132034692E1,-1.703662294E0,2.202599766E1
1.123965454E1,3.935096612E0,1.727602432E1,-2.062302436E0,1.783813592E1
1.124971654E1,2.969111443E0,1.336600993E1,-2.505040741E0,1.391909024E1
1.125977854E1,2.639615871E0,1.242310547E1,-2.190697936E0,1.288798972E1
1.126984154E1,2.125235579E0,1.371378828E1,-2.354626966E0,1.407582621E1
1.127990354E1,1.158929398E0,1.650229385E1,-3.980267230E0,1.701503297E1
1.128996554E1,5.121896325E-1,1.944271476E1,-6.250860643E0,2.042926221E1
1.130002854E1,6.633651540E-1,2.113223030E1,-7.084072502E0,2.229787645E1
1.131009054E1,2.286388643E0,2.074487799E1,-5.764551226E0,2.165196496E1
1.132015354E1,4.283663170E0,1.936185362E1,-3.151315945E0,2.007889284E1
1.133021554E1,5.887222302E0,1.827804179E1,-9.406684061E-1,1.922579140E1
1.134027692E1,6.934810628E0,1.729670242E1,1.243457186E-1,1.863552990E1
1.135033992E1,7.321201655E0,1.593157871E1,-1.524946533E-2,1.753326627E1
1.136040192E1,6.559091939E0,1.380151757E1,-6.119859624E-1,1.529307363E1
1.137046392E1,4.705312323E0,1.119044459E1,-1.055940489E0,1.218527900E1
1.138052692E1,2.388552949E0,8.531558923E0,-1.110095061E0,8.928885366E0
1.139058892E1,-7.871960253E-3,5.899981511E0,-9.300885272E-1,5.972847601E0
1.140065092E1,-2.136919778E0,3.417676499E0,-4.717194450E-1,4.058258003E0
1.141071392E1,-3.737380031E0,8.846264255E-1,2.438546205E-1,3.848381281E0
1.142077592E1,-4.804799189E0,-1.648045333E0,8.648067033E-1,5.152673025E0
1.143083792E1,-5.089477315E0,-4.021877478E0,1.099766539E0,6.579343754E0
1.144090092E1,-4.532913017E0,-6.073532719E0,1.249104427E0,7.680843832E0
1.145096292E1,-3.266116084E0,-7.839655555E0,1.402521333E0,8.607832456E0
1.146102492E1,-1.903802838E0,-9.412364193E0,1.361054633E0,9.698945028E0
1.147108792E1,-8.244753141E-1,-1.076606069E1,1.176123574E0,1.086144967E1
1.148114992E1,3.030816525E-2,-1.196668234E1,8.967289925E-1,1.200027199E1
1.149121192E1,6.346917240E-1,-1.340641886E1,3.475848109E-1,1.342593444E1
1.150127492E1,1.250776731E0,-1.402658391E1,-3.861682115E-1,1.408753437E1
1.151133692E1,1.593562147E0,-1.416492436E1,-8.050177538E-1,1.427699464E1
1.152139892E1,1.597417362E0,-1.357405152E1,-9.129351354E-1,1.369817752E1
1.153146192E1,1.261385626E0,-1.215557548E1,-5.831797276E-1,1.223475408E1
1.154152392E1,8.770101348E-1,-1.090823340E1,1.795551288E-1,1.094490487E1
1.155158592E1,3.915028822E-1,-1.004844595E1,8.955665660E-1,1.009586945E1
1.156164892E1,-3.291616961E-1,-9.748322400E0,1.093458563E0,9.814977772E0
1.157171092E1,-1.076117329E0,-9.782571296E0,6.745774093E-1,9.864673555E0
1.158177292E1,-1.720197489E0,-9.696361703E0,-2.698840857E-2,9.847803717E0
1.159183592E1,-2.209241503E0,-9.429966651E0,-6.917116515E-1,9.709968283E0
1.160189792E1,-2.494874479E0,-9.206442214E0,-1.148200781E0,9.607358739E0
1.161196092E1,-2.547098009E0,-9.155014783E0,-1.230273469E0,9.582044498E0
1.162202292E1,-2.339829125E0,-9.317586089E0,-1.045830726E0,9.663641797E0
1.163208492E1,-1.880387371E0,-9.717747894E0,-7.722312462E-1,9.928082488E0
1.164214792E1,-1.496487550E0,-1.014767670E1,-4.397889698E-1,1.026685111E1
1.165220992E1,-9.458611722E-1,-1.034208376E1,-3.643663563E-1,1.039163667E1
1.166227192E1,-5.062908152E-1,-1.062570062E1,-1.360746485E-1,1.063862587E1
1.167233492E1,-2.083789784E-1,-1.100343543E1,-1.247035682E-2,1.100541542E1
1.168239692E1,-4.425582111E-2,-1.137025231E1,-1.616989017E-2,1.137034994E1
1.169245892E1,-1.284938065E-1,-1.160702362E1,1.373333713E-2,1.160774295E1
1.170252192E1,-1.272195520E-1,-1.166762767E1,-4.074643922E-1,1.167543350E1
1.171258392E1,-1.222217906E-1,-1.128082383E1,-9.510735995E-1,1.132150456E1
1.172264592E1,-3.541270412E-1,-1.071606817E1,-1.361929961E0,1.080806995E1
1.173270892E1,-6.174489429E-1,-1.003946111E1,-1.976329654E0,1.025075127E1
1.174277092E1,-5.454131464E-1,-8.611503809E0,-2.569025652E0,9.003075372E0
1.175283292E1,-8.256967244E-1,-5.794808813E0,-1.963339480E0,6.173838852E0
1.176289592E1,-1.951381486E0,-2.473056471E0,3.042072415E-2,3.150368777E0
1.177295792E1,-2.593331943E0,1.110627158E0,2.293718859E0,3.635933093E0
1.178301992E1,-1.605532128E0,4.788158013E0,4.066432092E0,6.483830699E0
1.179308292E1,1.180434434E0,9.364673717E0,3.329700462E0,1.000886829E1
1.180314492E1,4.853609406E0,1.483764652E1,-3.797520983E-1,1.561593706E1
1.181320692E1,9.514026223E0,1.943004151E1,-4.890003061E0,2.218006623E1
1.182326992E1,1.196172274E1,1.957516823E1,-7.200015771E0,2.404392333E1
1.183333192E1,7.381023933E0,1.549430755E1,-3.214288996E0,1.746094884E1
1.184339392E1,1.901078620E0,1.313785157E1,-6.463617432E-1,1.329041111E1
1.185345692E1,-6.297284612E-1,1.368497554E1,-1.719580754E0,1.380695736E1
1.186351892E1,-9.161149974E-1,1.677476124E1,-3.492851812E0,1.715901789E1
1.187358092E1,5.867922105E-1,2.011919317E1,-4.439774473E0,2.061159519E1
1.188364392E1,3.381099826E0,2.114635250E1,-4.466728967E0,2.187582519E1
1.189370592E1,6.111915597E0,2.049908911E1,-3.844869397E0,2.173364183E1
1.190376892E1,7.688485150E0,1.945277899E1,-3.168344207E0,2.115565691E1
1.191383092E1,7.979827348E0,1.886299841E1,-3.046483262E0,2.070679632E1
1.192389292E1,7.592409550E0,1.863025116E1,-3.497390420E0,2.041966407E1
1.193395592E1,7.215603279E0,1.873073439E1,-3.734470457E0,2.041694422E1
1.194401792E1,6.962984267E0,1.850435593E1,-3.103233122E0,2.001310556E1
1.195407992E1,6.475476755E0,1.742487104E1,-2.087812814E0,1.870606566E1
1.196414292E1,5.795875930E0,1.568553021E1,-1.274544493E0,1.677058435E1
1.197420492E1,4.559063812E0,1.352806785E1,-5.433746608E-1,1.428596999E1
1.198426692E1,2.894509158E0,1.084153889E1,-1.584221220E-1,1.122239931E1
1.199432992E1,1.304949576E0,7.885275532E0,-1.465183604E-1,7.993868353E0
1.200439192E1,-2.350755378E-1,4.898122505E0,-1.264272908E-1,4.905389734E0
1.201445392E1,-1.938074977E0,1.980102278E0,6.012504745E-1,2.835214592E0
1.202451692E1,-3.179536070E0,-9.705395651E-1,1.634340044E0,3.704384436E0
1.203457892E1,-3.754687205E0,-3.936344408E0,2.236679270E0,5.881769926E0
1.204464092E1,-3.673193976E0,-6.669140630E0,2.287302125E0,7.949939732E0
1.205470392E1,-3.202589302E0,-9.356602221E0,1.625066360E0,1.002214668E1
1.206476592E1,-2.610301148E0,-1.167546878E1,8.037635261E-1,1.199067468E1
1.207482792E1,-1.839121962E0,-1.337771605E1,1.263039146E-1,1.350413304E1
1.208489092E1,-1.345228559E0,-1.526843896E1,-8.567059708E-1,1.535150850E1
1.209495292E1,-8.725525099E-1,-1.607016006E1,-1.728904724E0,1.618642961E1
1.210501492E1,-6.163364370E-1,-1.636661038E1,-1.917241786E0,1.649004615E1
1.211507792E1,-7.369061700E-1,-1.666290517E1,-1.650825684E0,1.676068808E1
1.212513992E1,-1.515665979E0,-1.631310251E1,-1.016086451E0,1.641484050E1
1.213520192E1,-1.584787377E0,-1.332332759E1,4.333020687E-2,1.341732040E1
1.214526492E1,-8.777582129E-1,-1.023032710E1,9.586679631E-1,1.031256982E1
1.215532692E1,-6.703544039E-1,-8.664754402E0,1.562923906E0,8.830066535E0
1.216538892E1,-8.104476245E-1,-7.624582100E0,1.802024156E0,7.876443906E0
1.217545192E1,-1.177590056E0,-7.039056543E0,1.249228973E0,7.245385316E0
1.218551392E1,-1.781463153E0,-6.694431592E0,-1.404607181E-1,6.928835005E0
1.219557692E1,-2.460618859E0,-6.474021383E0,-1.598146949E0,7.107859854E0
1.220563892E1,-2.774607030E0,-6.563622361E0,-2.293650447E0,7.486014630E0
1.221570092E1,-2.588013023E0,-7.110758609E0,-2.257646801E0,7.896687184E0
1.222576392E1,-2.001495778E0,-8.042298415E0,-1.863014123E0,8.494431751E0
1.223582592E1,-1.065729824E0,-9.097051919E0,-1.596507974E0,9.297363679E0
1.224588792E1,-1.621366388E-1,-9.925321126E0,-1.463736418E0,1.003398286E1
1.225595092E1,7.239637966E-1,-1.037502814E1,-9.434423983E-1,1.044296012E1
1.226601292E1,1.473187857E0,-1.070387321E1,-1.287137349E-1,1.080554263E1
1.227607492E1,1.872435742E0,-1.119461248E1,3.172219010E-1,1.135455829E1
1.228613792E1,2.002639494E0,-1.146554556E1,5.797069931E-1,1.165355568E1
1.229619992E1,1.847968945E0,-1.143706728E1,5.795439289E-1,1.159988656E1
1.230626192E1,1.397504421E0,-1.116875960E1,3.607487205E-1,1.126163173E1
1.231632492E1,7.655641048E-1,-1.077125068E1,2.207791686E-1,1.080067928E1
1.232638692E1,1.360889742E-1,-1.063675653E1,4.411724210E-2,1.063771856E1
1.233644904E1,-3.307003909E-1,-1.054792329E1,-6.083969414E-2,1.055328148E1
1.234651204E1,-6.994878636E-1,-1.022102885E1,-1.798958022E-2,1.024495182E1
1.235657404E1,-9.647364228E-1,-9.676605715E0,-3.596786070E-1,9.731227221E0
1.236663604E1,-9.502229758E-1,-8.895874372E0,-1.202154794E0,9.026886544E0
1.237669904E1,-6.978353673E-1,-7.419198065E0,-2.031536141E0,7.723898836E0
1.238676104E1,-8.558810748E-1,-4.736890796E0,-1.115544666E0,4.941164511E0
1.239682304E1,-1.055240138E0,-1.427252716E0,5.620706213E-1,1.861855378E0
1.240688604E1,-4.700756465E-1,1.284315190E0,1.499806137E0,2.029742612E0
1.241694804E1,2.341211991E-1,3.705284665E0,1.264869690E0,3.922224180E0
1.242701004E1,1.468157351E0,8.237529345E0,-7.260054251E-1,8.398777267E0
1.243707304E1,3.633398995E0,1.497258271E1,-2.946176909E0,1.568629273E1
1.244713504E1,5.699752967E0,2.106158424E1,-4.285444232E0,2.223606411E1
1.245719704E1,5.612204946E0,2.428330417E1,-2.928568604E0,2.509486441E1
1.246726004E1,3.153207812E0,2.279937673E1,-7.181727143E-1,2.302759369E1
1.247732204E1,1.845410204E0,1.773238547E1,-1.719082717E0,1.791084249E1
1.248738404E1,2.495077963E0,1.495126844E1,-4.537773515E0,1.582268089E1
1.249744704E1,3.555242187E0,1.586159806E1,-6.982431521E0,1.769136484E1
1.250750904E1,4.509311900E0,1.806575395E1,-8.301613659E0,2.038681311E1
1.251757204E1,5.149846308E0,1.970519861E1,-7.528649172E0,2.171396619E1
1.252763404E1,5.383843693E0,1.998630467E1,-4.775421023E0,2.124247616E1
1.253769604E1,4.989246098E0,1.916363417E1,-1.765808987E0,1.988103450E1
1.254775904E1,4.682597644E0,1.877110708E1,-4.522294327E-1,1.935163283E1
1.255782104E1,4.317905342E0,1.848684469E1,-7.052864742E-1,1.899750410E1
1.256788304E1,3.649367449E0,1.800626204E1,-1.041565621E0,1.840185355E1
1.257794604E1,2.597375293E0,1.682278793E1,-9.384254873E-1,1.704796746E1
1.258800804E1,1.220091566E0,1.471296166E1,-7.472624660E-1,1.478236332E1
1.259807004E1,5.923638761E-2,1.236785864E1,-9.258036876E-1,1.240260250E1
1.260813304E1,-6.474721295E-1,9.946647091E0,-1.476701449E0,1.007649025E1
1.261819504E1,-1.093466018E0,7.496394761E0,-1.553915101E0,7.733450361E0
1.262825704E1,-1.476148010E0,4.938839006E0,-1.053274158E0,5.261228956E0
1.263832004E1,-1.770363383E0,2.110873502E0,-2.889857697E-1,2.770105815E0
1.264838204E1,-1.794044899E0,-9.535422939E-1,2.865802252E-1,2.051820711E0
1.265844404E1,-1.704367468E0,-3.652571431E0,7.961375143E-1,4.108525461E0
1.266850704E1,-1.384072490E0,-5.876929448E0,1.434343634E0,6.205747180E0
1.267856904E1,-9.679209626E-1,-8.153898373E0,1.189129463E0,8.296804117E0
1.268863104E1,-6.076042052E-1,-1.027328659E1,9.675545615E-1,1.033662237E1
1.269869404E1,-1.213714593E-1,-1.204626997E1,6.731752469E-1,1.206567512E1
1.270875604E1,2.439396974E-1,-1.362436096E1,6.935031652E-2,1.362672109E1
1.271881804E1,1.970686726E-1,-1.543243114E1,-4.014868567E-1,1.543891054E1
1.272888104E1,-1.239792444E-3,-1.625387723E1,-6.395369462E-1,1.626645426E1
1.273894304E1,-4.578245603E-1,-1.651820646E1,-1.013044145E0,1.655557328E1
1.274900504E1,-1.158102675E0,-1.584219115E1,-1.708638859E0,1.597609680E1
1.275906804E1,-1.095925211E0,-1.351405675E1,-1.974145719E0,1.370138800E1
1.276913004E1,-5.402004633E-1,-1.123316317E1,-1.491480287E0,1.134461480E1
1.277919204E1,-2.937587788E-1,-9.516345229E0,-9.000612476E-1,9.563327401E0
1.278925504E1,-4.910352103E-1,-8.422965603E0,-5.742106835E-1,8.456783256E0
1.279931704E1,-8.854675475E-1,-7.689891990E0,-6.183560653E-1,7.765362569E0
1.280937904E1,-1.153924328E0,-7.115231144E0,-8.866542399E-1,7.262521004E0
1.281944204E1,-1.029183557E0,-6.664369887E0,-1.184855295E0,6.846672685E0
1.282950404E1,-5.801779132E-1,-6.405904244E0,-1.098522910E0,6.525256177E0
1.283956604E1,1.987030059E-3,-6.403348426E0,-4.312841946E-1,6.417856423E0
1.284962904E1,6.959388229E-1,-6.775710813E0,6.307923621E-1,6.840503408E0
1.285969104E1,1.466603308E0,-7.570862560E0,1.490519589E0,7.854332169E0
1.286975304E1,2.069181831E0,-8.732076904E0,1.117818721E0,9.043240526E0
1.287981604E1,2.459347967E0,-9.905186824E0,3.414247692E-1,1.021164479E1
1.288987804E1,2.805271291E0,-1.063395922E1,-3.387256213E-1,1.100297100E1
1.289994004E1,2.766946009E0,-1.104339647E1,-9.474839938E-1,1.142411142E1
1.291000304E1,2.432799269E0,-1.149732167E1,-1.578099770E0,1.185737394E1
1.292006504E1,1.741268223E0,-1.188367644E1,-2.344480877E0,1.223725342E1
1.293012804E1,2.528177442E-1,-1.205916892E1,-3.191672258E0,1.247694849E1
1.294019004E1,-1.330040563E0,-1.207824488E1,-4.514497211E0,1.296278104E1
1.295025204E1,-2.716975119E0,-1.171748337E1,-5.455951556E0,1.320790588E1
1.296031504E1,-3.739543501E0,-1.107387566E1,-5.951210722E0,1.311609000E1
1.297037704E1,-3.848430643E0,-1.035364371E1,-5.636374412E0,1.240068840E1
1.298043904E1,-3.407652032E0,-8.788786710E0,-4.595674691E0,1.048690088E1
1.299050204E1,-3.131982419E0,-5.930175363E0,-3.285032997E0,7.467779824E0
1.300056404E1,-2.608172469E0,-1.761240996E0,-1.097172714E0,3.332914856E0
1.301062604E1,-1.456551652E0,3.127224247E0,3.422173008E0,4.859253266E0
1.302068904E1,-2.731493171E-1,8.697596458E0,7.836009232E0,1.171007410E1
1.303075104E1,2.257574003E0,2.091799066E1,5.862971560E0,2.184109450E1
1.304081304E1,5.675607474E0,3.147888775E1,1.300651141E0,3.201288159E1
1.305087604E1,3.491058471E0,2.561180794E1,-1.687611687E0,2.590367210E1
1.306093804E1,-7.684087752E-1,1.652175221E1,-8.671279749E-1,1.656232650E1
1.307100004E1,-1.996738484E0,1.162852032E1,6.512593710E-1,1.181666570E1
1.308106304E1,-2.313081767E0,9.383215238E0,3.973544832E-1,9.672278224E0
1.309112504E1,-1.469470782E0,9.647485412E0,-1.685742917E0,9.903284724E0
1.310118704E1,1.162456877E0,1.217668275E1,-3.944384329E0,1.285227904E1
1.311125004E1,3.636433116E0,1.390778135E1,-4.339514605E0,1.501603859E1
1.312131204E1,5.078107404E0,1.373256369E1,-3.069018724E0,1.495959078E1
1.313137404E1,5.352215518E0,1.212771817E1,-1.487653284E0,1.333944794E1
1.314143704E1,4.713745470E0,1.035325779E1,-6.074696461E-1,1.139203066E1
1.315149904E1,3.996134527E0,9.668608478E0,-7.431484381E-1,1.048824822E1
1.316156104E1,3.404467639E0,9.676724414E0,-1.017088079E0,1.030843652E1
1.317162404E1,2.819405473E0,9.298510133E0,-6.290141507E-1,9.736888452E0
1.318168604E1,2.178425800E0,8.432139884E0,1.254847562E-1,8.709894857E0
1.319174804E1,1.513208540E0,7.080794553E0,6.148055629E-1,7.266734993E0
1.320181104E1,8.344653551E-1,5.298497733E0,7.652660429E-1,5.418121701E0
1.321187304E1,1.122317496E-1,3.309414132E0,7.387161025E-1,3.392715629E0
1.322193504E1,-5.472790660E-1,1.325405914E0,6.196738815E-1,1.562117451E0
1.323199804E1,-1.083457120E0,-4.146827799E-1,6.652166748E-1,1.337293671E0
1.324206004E1,-1.484598114E0,-1.908005524E0,8.315266907E-1,2.556551051E0
1.325212204E1,-1.769759220E0,-3.210927140E0,1.014238147E0,3.804047819E0
1.326218504E1,-1.957738725E0,-4.303357762E0,1.120898377E0,4.858810772E0
1.327224704E1,-2.054044413E0,-5.256361527E0,1.071636754E0,5.744287623E0
1.328230904E1,-2.044834464E0,-6.206563307E0,8.375399673E-1,6.588190136E0
1.329237204E1,-1.948813827E0,-7.092322338E0,5.645621198E-1,7.376831425E0
1.330243404E1,-1.748193227E0,-7.862508228E0,2.805037622E-1,8.059398089E0
1.331249604E1,-1.435706474E0,-8.459925268E0,7.423155388E-2,8.581206148E0
1.332255904E1,-1.085452409E0,-8.918641675E0,1.508686523E-1,8.985718536E0
1.333262104E1,-7.255999938E-1,-9.168302581E0,4.489615335E-1,9.207922351E0
1.334268204E1,-5.247200695E-1,-9.384106938E0,8.019701850E-1,9.432918443E0
1.335274504E1,-4.817940514E-1,-9.595058107E0,9.555858958E-1,9.654553847E0
1.336280704E1,-5.743506512E-1,-9.623776706E0,8.848117822E-1,9.681417699E0
1.337286904E1,-7.209919493E-1,-9.877119019E0,6.746400476E-1,9.926351228E0
1.338293204E1,-1.002848501E0,-9.921202347E0,3.435005307E-1,9.977672762E0
1.339299404E1,-1.348710284E0,-9.775347061E0,5.495677393E-2,9.868102647E0
1.340305704E1,-1.786339146E0,-9.505425553E0,-2.921385884E-1,9.676232089E0
1.341311904E1,-2.274052626E0,-9.271563824E0,-1.140782491E0,9.614291227E0
1.342318104E1,-2.569180019E0,-8.884003354E0,-2.127695357E0,9.489641147E0
1.343324404E1,-2.398279354E0,-8.417954539E0,-2.263130904E0,9.040766780E0
1.344330604E1,-1.960166196E0,-7.779531561E0,-1.376340424E0,8.139881804E0
1.345336804E1,-1.147484570E0,-6.553965100E0,-4.105131304E-1,6.666310854E0
1.346343104E1,-2.931826088E-1,-4.766730891E0,5.395027077E-1,4.806115126E0
1.347349304E1,1.082547586E0,-2.296090490E0,1.118202810E0,2.773863431E0
1.348355504E1,3.061633106E0,5.300524378E-1,1.582660013E0,3.487028187E0
1.349361804E1,4.867588345E0,3.329244379E0,2.295482233E0,6.328232226E0
1.350368004E1,6.076265708E0,5.402018593E0,2.069744772E0,8.389675396E0
1.351374204E1,5.896873131E0,5.884677009E0,-7.622284144E-3,8.330821948E0
1.352380504E1,4.207817767E0,5.242566192E0,-3.649105786E0,7.648934806E0
1.353386704E1,1.656235382E0,4.700305937E0,-5.752611212E0,7.611079246E0
1.354392904E1,-8.250848132E-1,5.710279124E0,-4.591855874E0,7.373818074E0
1.355399204E1,-2.292542984E0,8.458569884E0,-1.244224341E0,8.851624259E0
1.356405404E1,-2.015318888E0,1.241383296E1,1.352934751E0,1.264892056E1
1.357411604E1,5.092395660E-1,1.662219101E1,1.220686667E-1,1.663043774E1
1.358417904E1,3.954429846E0,1.965181119E1,-4.090825506E0,2.045888687E1
1.359424104E1,6.533780512E0,2.035982013E1,-6.569385377E0,2.236893801E1
1.360430304E1,7.573050004E0,1.819304666E1,-6.159143558E0,2.064638183E1
1.361436604E1,6.820470080E0,1.542643073E1,-5.507188368E0,1.774324381E1
1.362442804E1,6.109863224E0,1.407694481E1,-6.427861708E0,1.663755421E1
1.363449004E1,5.941766299E0,1.462122352E1,-6.275843457E0,1.698443332E1
1.364455304E1,6.581478589E0,1.722195629E1,-4.889593464E0,1.907405995E1
1.365461504E1,7.771945968E0,1.974598177E1,-2.911479532E0,2.141923559E1
1.366467704E1,8.729520501E0,2.073850920E1,-6.633023695E-1,2.251066996E1
1.367474004E1,8.058936083E0,1.859861773E1,1.407802538E0,2.031838921E1
1.368480204E1,5.271511663E0,1.412284428E1,3.190294654E0,1.540848941E1
1.369486404E1,2.474375018E0,9.676204596E0,3.323298930E0,1.052595758E1
1.370492704E1,2.816352350E-1,5.528888555E0,2.834317335E0,6.219427772E0
1.371498904E1,-1.419595348E0,1.757578885E0,2.423904777E0,3.313555320E0
1.372505104E1,-2.343257201E0,-1.687284243E0,1.919000044E0,3.467036717E0
1.373511404E1,-2.846233960E0,-4.905670091E0,1.408576709E0,5.843863033E0
1.374517604E1,-2.997429509E0,-7.742873027E0,3.619771475E-1,8.310697553E0
1.375523804E1,-3.088677063E0,-1.014192304E1,-6.089746098E-1,1.061929278E1
1.376530104E1,-3.147555309E0,-1.264151301E1,-1.282872682E0,1.309048196E1
1.377536304E1,-2.677281588E0,-1.464588591E1,-1.990428461E0,1.502103912E1
1.378542504E1,-1.704303880E0,-1.555419005E1,-2.750570589E0,1.588719983E1
1.379548804E1,-1.085151278E0,-1.598435801E1,-2.965256959E0,1.629325023E1
1.380555004E1,-6.669774176E-1,-1.662381653E1,-2.725333421E0,1.685893168E1
1.381561204E1,-6.429579328E-1,-1.665415657E1,-1.907167034E0,1.677532748E1
1.382567504E1,-1.301315677E0,-1.638607108E1,-6.932622600E-1,1.645227524E1
1.383573704E1,-2.266391312E0,-1.458636126E1,5.973439131E-1,1.477346554E1
1.384579904E1,-2.113137982E0,-1.079554118E1,1.206923783E0,1.106642339E1
1.385586204E1,-1.845015224E0,-8.541512053E0,1.007665876E0,8.796414033E0
1.386592404E1,-1.947365618E0,-7.624977372E0,6.224162257E-1,7.894296341E0
1.387598604E1,-2.030356465E0,-6.884803485E0,1.064123448E-1,7.178731782E0
1.388604904E1,-2.135220138E0,-6.277436823E0,-3.726945090E-1,6.641105277E0
1.389611104E1,-2.251420686E0,-6.047824851E0,-6.703136927E-1,6.488019804E0
1.390617304E1,-2.209313862E0,-6.379758419E0,-4.838518327E-1,6.768788505E0
1.391623604E1,-1.677748019E0,-7.370113029E0,-8.939402360E-2,7.559192799E0
1.392629804E1,-1.098076255E0,-8.591371846E0,-4.661751151E-2,8.661386427E0
1.393636104E1,-6.309622237E-1,-9.573882415E0,-5.754537284E-2,9.594824089E0
1.394642304E1,-1.763559709E-1,-1.006851242E1,1.039575740E-1,1.007059338E1
1.395648504E1,1.822191934E-1,-1.024915630E1,3.148187320E-1,1.025560918E1
1.396654804E1,4.616545596E-1,-1.037951764E1,1.539361016E-1,1.039091948E1
1.397661004E1,5.300531687E-1,-1.059714282E1,-1.328569988E-1,1.061122251E1
1.398667204E1,4.997689770E-1,-1.069888437E1,-4.769877863E-1,1.072116659E1
1.399673504E1,4.272536357E-1,-1.079551078E1,-6.227775836E-1,1.082189681E1
1.400679704E1,2.417363204E-1,-1.106438212E1,-7.785058933E-1,1.109437063E1
1.401685904E1,-2.604181744E-2,-1.128979229E1,-8.541969305E-1,1.132209082E1
1.402692204E1,-4.875888614E-1,-1.143004360E1,-8.206754279E-1,1.146983643E1
1.403698404E1,-1.034039523E0,-1.141000169E1,-1.000320019E0,1.150034853E1
1.404704604E1,-1.665419311E0,-1.131924120E1,-1.389556886E0,1.152517728E1
1.405710904E1,-2.190499715E0,-1.072664344E1,-2.067253858E0,1.114148585E1
1.406717104E1,-2.256360560E0,-8.886730496E0,-2.683842748E0,9.553436752E0
1.407723304E1,-2.331629866E0,-5.811496181E0,-2.416055620E0,6.711729320E0
1.408729604E1,-2.347545695E0,-2.641480256E0,-1.015975939E0,3.677036285E0
1.409735804E1,-2.085395429E0,-1.694152967E0,1.687049185E0,3.172564156E0
1.410742004E1,-1.484916495E0,-1.497789432E0,2.605121684E0,3.351866520E0
1.411748304E1,-4.618201089E-1,8.236024856E0,1.679090978E0,8.418119134E0
1.412754504E1,4.630184373E0,2.938868591E1,1.373694559E0,2.978288945E1
1.413760704E1,1.106109482E1,3.703374730E1,-2.772526006E-1,3.865130175E1
1.414767004E1,1.071308609E1,3.078663823E1,-1.437157607E0,3.262901667E1
1.415773204E1,4.347892495E0,1.917860071E1,1.742397759E0,1.974231101E1
1.416779404E1,-2.558476983E-1,1.016881907E1,2.123170927E0,1.039125565E1
1.417785704E1,-9.181853503E-1,7.021406137E0,-9.534352899E-1,7.145085537E0
1.418791904E1,-4.171117133E-1,8.375233612E0,-3.267973745E0,8.999898479E0
1.419798104E1,4.279501122E-1,1.230610152E1,-3.701218511E0,1.285777175E1
1.420804404E1,8.596386418E-1,1.546382952E1,-3.748867471E0,1.593496186E1
1.421810604E1,7.999783310E-1,1.605502512E1,-3.468271286E0,1.644483818E1
1.422816804E1,1.174249542E-1,1.320806611E1,-2.068887424E0,1.336963328E1
1.423823104E1,-2.706910014E-2,1.000927662E1,-1.217413688E0,1.008307727E1
1.424829304E1,5.547174552E-1,7.768479738E0,-1.730696019E0,7.978239004E0
1.425835504E1,1.756080974E0,6.878394937E0,-2.836591902E0,7.644762319E0
1.426841804E1,2.995872980E0,6.886275229E0,-3.434439297E0,8.257809318E0
1.427848004E1,4.067566452E0,7.337522988E0,-3.120565438E0,8.951104350E0
1.428854204E1,4.800813727E0,7.694927613E0,-1.904546896E0,9.267525143E0
1.429860504E1,4.733747917E0,7.353705157E0,-2.082518745E-1,8.748069371E0
1.430866704E1,3.832103171E0,6.180109919E0,1.046700865E0,7.346724169E0
1.431872904E1,2.480330408E0,4.427904040E0,1.428625642E0,5.272508354E0
1.432879204E1,1.022525113E0,2.478688509E0,1.149878420E0,2.917477457E0
1.433885421E1,-1.773707552E-1,5.719337046E-1,6.554214922E-1,8.877758049E-1
1.434891621E1,-1.102429069E0,-1.408581972E0,2.068838453E-1,1.800625988E0
1.435897921E1,-1.746885643E0,-3.354196787E0,-2.038211103E-1,3.787319445E0
1.436904121E1,-2.019851065E0,-5.132601700E0,-6.316711986E-1,5.551793137E0
1.437910321E1,-2.273788624E0,-6.705201579E0,-9.212101150E-1,7.139920938E0
1.438916621E1,-2.303269116E0,-7.927895887E0,-9.211604136E-1,8.306931944E0
1.439922821E1,-2.094929753E0,-8.832126857E0,-8.269103140E-1,9.114766928E0
1.440929021E1,-1.896450111E0,-9.544884319E0,-6.550436890E-1,9.753482553E0
1.441935321E1,-1.900695043E0,-1.005767402E1,-4.032497557E-1,1.024363504E1
1.442941521E1,-1.682178601E0,-1.027374969E1,-2.548163956E-1,1.041367317E1
1.443947721E1,-1.356513101E0,-9.969549465E0,-8.916357022E-2,1.006180871E1
1.444954021E1,-1.058307076E0,-9.517904681E0,3.750407774E-2,9.576634583E0
1.445960221E1,-9.173897635E-1,-9.208270054E0,8.208500404E-2,9.254219541E0
1.446966421E1,-8.872774069E-1,-8.893141383E0,1.283054531E-1,8.938214986E0
1.447972721E1,-9.060854877E-1,-8.497134025E0,8.020629365E-2,8.545683741E0
1.448978921E1,-9.714985815E-1,-8.073979214E0,-1.131448289E-1,8.133003849E0
1.449985121E1,-9.903040311E-1,-7.619844101E0,-3.220565251E-1,7.690672702E0
1.450991421E1,-9.462647031E-1,-7.118872790E0,-4.462244153E-1,7.195337582E0
1.451997621E1,-8.482225379E-1,-6.448010629E0,-4.178964096E-1,6.516974755E0
1.453003821E1,-6.613403363E-1,-5.513739588E0,-2.904861836E-1,5.560852229E0
1.454010121E1,-2.645816112E-1,-4.433962340E0,1.288843274E-1,4.443718784E0
1.455016321E1,5.218582229E-1,-3.789871071E0,8.777138472E-1,3.925027431E0
1.456022521E1,1.729078240E0,-4.280299267E0,1.118216844E0,4.749850765E0
1.457028821E1,2.960231861E0,-5.299132156E0,2.935883325E-2,6.069978272E0
1.458035021E1,3.430210590E0,-6.440732015E0,-1.421958647E0,7.434469717E0
1.459041221E1,2.421851527E0,-6.981112974E0,-2.700901415E0,7.867412004E0
1.460047521E1,9.130010627E-1,-6.712103632E0,-3.120278925E0,7.458018951E0
1.461053721E1,3.828340195E-1,-5.192301772E0,-2.733679737E0,5.880439140E0
1.462059921E1,3.573454218E-1,-3.084239611E0,-1.919637390E0,3.650374972E0
1.463066221E1,-5.908013539E-1,-3.701995021E-1,-1.276641304E0,1.454615733E0
1.464072421E1,-9.780432969E-1,3.220813027E0,-8.466044672E-1,3.470870837E0
1.465078621E1,-1.074820709E0,6.905814285E0,-1.439173727E0,7.135596087E0
1.466084921E1,-1.139236707E0,1.058551738E1,-9.114356169E-1,1.068558624E1
1.467091121E1,-4.317353073E-1,1.268767678E1,1.823816875E0,1.282535946E1
1.468097321E1,1.172880124E0,1.306214065E1,3.206035359E0,1.350088253E1
1.469103621E1,3.453985662E0,1.257997340E1,3.930175303E-1,1.305144477E1
1.470109821E1,5.578697476E0,1.285291909E1,-5.031284655E0,1.488735101E1
1.471116121E1,6.743217251E0,1.394570639E1,-8.992773845E0,1.791155178E1
1.472122321E1,7.000963102E0,1.555088053E1,-9.775978560E0,1.965739368E1
1.473128521E1,6.918338436E0,1.700971406E1,-7.869479864E0,1.997805026E1
1.474134821E1,6.780711352E0,1.631119632E1,-5.003294034E0,1.835936064E1
1.475141021E1,6.612880476E0,1.517568809E1,-3.091559740E0,1.684011398E1
1.476147221E1,6.163765197E0,1.476921304E1,-2.118572238E0,1.614341983E1
1.477153521E1,5.412026103E0,1.497722423E1,-1.707170624E0,1.601629495E1
1.478159721E1,4.733401178E0,1.551897461E1,-1.494339868E0,1.629345609E1
1.479165921E1,4.401451237E0,1.585535323E1,-1.314126635E0,1.650732952E1
1.480172221E1,4.262453857E0,1.566462291E1,-1.093633980E0,1.627098519E1
1.481178421E1,4.192895672E0,1.449266781E1,-7.052059288E-1,1.510348006E1
1.482184621E1,3.914422319E0,1.218223410E1,7.283525705E-2,1.279589132E1
1.483190921E1,3.263998808E0,9.030887750E0,7.749629923E-1,9.633856415E0
1.484197121E1,2.211716337E0,4.896957740E0,1.085591719E0,5.481823934E0
1.485203321E1,9.452046029E-1,3.812121481E-1,1.078268666E0,1.483710807E0
1.486209621E1,-3.982450873E-2,-3.634729237E0,7.982396615E-1,3.721562733E0
1.487215821E1,-4.038302015E-1,-6.756191053E0,5.525267959E-1,6.790764481E0
1.488222021E1,-4.958110333E-1,-9.148927832E0,5.537207973E-1,9.179069439E0
1.489228321E1,-6.049920712E-1,-1.133394110E1,7.386699826E-1,1.137408764E1
1.490234521E1,-9.698950557E-1,-1.348994166E1,8.347368121E-1,1.355049844E1
1.491240721E1,-7.925418422E-1,-1.442424720E1,1.849562019E-1,1.444718792E1
1.492247021E1,-4.294969931E-1,-1.499822743E1,-5.609327531E-1,1.501485729E1
1.493253221E1,2.179240828E-1,-1.523801239E1,-1.107177300E0,1.527973672E1
1.494259421E1,6.736075754E-1,-1.541801191E1,-1.551017806E0,1.551046403E1
1.495265721E1,5.928134539E-1,-1.582896709E1,-1.739534377E0,1.593529437E1
1.496271921E1,-3.303426875E-1,-1.544480853E1,-1.105092183E0,1.548781668E1
1.497278121E1,-1.396665785E0,-1.243324805E1,8.278780282E-2,1.251172195E1
1.498284421E1,-2.124705383E0,-9.662815642E0,1.399004817E-2,9.893663367E0
1.499290621E1,-2.609425527E0,-7.881207624E0,-9.938752180E-1,8.361239331E0
1.500296821E1,-2.762652106E0,-6.495233327E0,-1.796321951E0,7.283342309E0
1.501303121E1,-2.921457220E0,-5.678263280E0,-2.223696697E0,6.761835044E0
1.502309321E1,-3.248393759E0,-5.515560411E0,-2.159511811E0,6.755513298E0
1.503315521E1,-3.699947034E0,-6.051750087E0,-1.601751757E0,7.271787666E0
1.504321821E1,-3.973181282E0,-7.095471064E0,-6.826852316E-1,8.160755985E0
1.505328021E1,-3.204691669E0,-8.398103827E0,-9.805426162E-2,8.989316504E0
1.506334221E1,-2.266373186E0,-9.527303495E0,-5.555907369E-2,9.793316400E0
1.507340521E1,-1.530368071E0,-1.025096894E1,-1.229301443E-1,1.036530281E1
1.508346721E1,-9.324364766E-1,-1.060277719E1,-8.803505760E-2,1.064406277E1
1.509352921E1,-6.808953989E-1,-1.077483034E1,2.824439049E-2,1.079635981E1
1.510359221E1,-8.026056312E-1,-1.071823631E1,2.275719156E-1,1.075065367E1
1.511365421E1,-8.788497419E-1,-1.040788716E1,3.705912656E-1,1.045149893E1
1.512371621E1,-8.256329166E-1,-9.982111623E0,3.751158410E-1,1.002321975E1
1.513377921E1,-7.707120665E-1,-9.866644317E0,4.550227207E-1,9.907154629E0
1.514384121E1,-7.914035355E-1,-1.010191172E1,7.908002490E-1,1.016367576E1
1.515390321E1,-8.923162450E-1,-1.045652897E1,1.332371117E0,1.057877305E1
1.516396621E1,-7.817720018E-1,-1.036320507E1,1.664218147E0,1.052505624E1
1.517402821E1,-7.185529295E-1,-9.804231137E0,1.813420379E0,9.996387346E0
1.518409021E1,-8.631057483E-1,-9.129302237E0,1.741240010E0,9.333864561E0
1.519415321E1,-1.100546412E0,-8.547885518E0,5.048883240E-1,8.633218488E0
1.520421521E1,-1.152805025E0,-6.747405027E0,-8.717473483E-1,6.900462120E0
1.521427721E1,-1.261506371E0,-4.491176761E0,-1.343871421E0,4.854694369E0
1.522434021E1,-1.665426035E0,-4.028008284E0,-1.050741218E0,4.483586926E0
1.523440221E1,-1.904547189E0,-1.423971258E0,-8.771221820E-1,2.534627677E0
1.524446421E1,-1.421427866E0,7.931590742E0,-2.191255029E-1,8.060930769E0
1.525452721E1,9.256063440E-1,1.996812217E1,9.474992696E-1,2.001200652E1
1.526458921E1,3.347773036E0,2.533638771E1,2.215732205E0,2.565247738E1
1.527465121E1,3.213728248E0,2.397002907E1,8.125127149E-1,2.419815116E1
1.528471421E1,6.946702695E-1,1.970260712E1,-2.556902035E0,1.987996585E1
1.529477621E1,-6.622297709E-1,1.535000294E1,-5.265266837E0,1.624143385E1
1.530483821E1,3.401698105E-1,1.396931277E1,-6.062996621E0,1.523211551E1
1.531490121E1,3.506137855E0,1.726923804E1,-4.900301178E0,1.829023064E1
1.532496321E1,7.185849137E0,2.079420978E1,-4.435577341E0,2.244348312E1
1.533502521E1,1.022715791E1,2.153560398E1,-4.924971750E0,2.434404125E1
1.534508783E1,1.096707978E1,1.933797008E1,-4.193785619E0,2.262347815E1
1.535514983E1,8.545351335E0,1.630034622E1,-2.375517898E0,1.855713884E1
1.536521183E1,6.427479300E0,1.517365677E1,-3.319279554E0,1.680981756E1
1.537527483E1,5.368530419E0,1.582174928E1,-4.969574311E0,1.743116571E1
1.538533683E1,4.979878274E0,1.755945407E1,-5.456917516E0,1.905023789E1
1.539539883E1,4.628754144E0,1.891570287E1,-4.871610060E0,2.007390756E1
1.540546183E1,4.245275030E0,1.890219113E1,-3.717843314E0,1.972656961E1
1.541552383E1,3.348918505E0,1.632957412E1,-2.276316522E0,1.682414524E1
1.542558583E1,2.518354266E0,1.256967295E1,-1.145903410E0,1.287058199E1
1.543564883E1,1.607516673E0,8.585405347E0,-5.671296322E-1,8.752995535E0
1.544571083E1,5.373854309E-1,4.786424899E0,3.821155429E-2,4.816648890E0
1.545577283E1,-4.373892725E-2,1.211607403E0,6.570106924E-1,1.378973764E0
1.546583583E1,-5.291222920E-1,-2.225729190E0,1.110396777E0,2.542994658E0
1.547589783E1,-8.680459146E-1,-5.191522338E0,1.429876946E0,5.454352022E0
1.548595983E1,-1.010840110E0,-7.628406764E0,1.714633425E0,7.883803350E0
1.549602283E1,-7.887748466E-1,-9.560614498E0,1.793020613E0,9.759223241E0
1.550608483E1,-3.215516181E-1,-1.130857822E1,1.465957190E0,1.140773279E1
1.551614683E1,-1.995453704E-2,-1.351412809E1,1.053384086E0,1.355513460E1
1.552620983E1,1.132889993E-1,-1.500501254E1,6.731414062E-1,1.502053112E1
1.553627183E1,4.465941055E-1,-1.528029828E1,3.516445327E-1,1.529086707E1
1.554633383E1,6.980964455E-1,-1.531230127E1,6.073575988E-3,1.532820751E1
1.555639683E1,4.641205497E-1,-1.524609558E1,-4.077029586E-1,1.525860610E1
1.556645883E1,-3.129053403E-1,-1.462480553E1,-7.566033930E-1,1.464770614E1
1.557652083E1,-1.335032477E0,-1.283268188E1,-1.003977964E0,1.294094307E1
1.558658383E1,-2.270512137E0,-1.128952332E1,-6.880126297E-1,1.153611388E1
1.559664583E1,-3.236283590E0,-1.035487513E1,-7.022190249E-1,1.087152620E1
1.560670783E1,-3.822909886E0,-9.443727488E0,-1.398334726E0,1.028367487E1
1.561677083E1,-3.902469733E0,-8.512072492E0,-2.498358543E0,9.691565587E0
1.562683283E1,-3.672634105E0,-7.687129766E0,-3.173248851E0,9.091188788E0
1.563689483E1,-3.105662932E0,-7.084877079E0,-3.015344208E0,8.302585510E0
1.564695783E1,-2.302806017E0,-6.857741987E0,-2.244963021E0,7.574391043E0
1.565701983E1,-1.442270120E0,-7.217835161E0,-1.116298884E0,7.444690102E0
1.566708183E1,-6.195609572E-1,-8.036462894E0,-2.824672937E-2,8.060359142E0
1.567714483E1,2.312409338E-2,-8.952791169E0,6.520668715E-1,8.976535837E0
1.568720683E1,5.661664862E-1,-9.752091515E0,7.994161212E-1,9.801168274E0
1.569726883E1,9.069035862E-1,-1.033492326E1,7.156524181E-1,1.039929186E1
1.570733183E1,9.943395600E-1,-1.062539656E1,8.103837436E-1,1.070254573E1
1.571739383E1,8.904729103E-1,-1.084009580E1,6.501875764E-1,1.089602509E1
1.572745583E1,6.947095920E-1,-1.105748943E1,7.839603223E-2,1.107956857E1
1.573751883E1,4.845640967E-1,-1.130283158E1,-6.429165637E-1,1.133146706E1
1.574758083E1,2.401149606E-1,-1.137032482E1,-1.188886877E0,1.143483247E1
1.575764283E1,6.566123508E-2,-1.119779921E1,-1.478497129E0,1.129517474E1
1.576770583E1,-1.590851963E-1,-1.092836185E1,-1.725440249E0,1.106487890E1
1.577776783E1,-4.578542349E-1,-1.013865094E1,-1.891292428E0,1.032370382E1
1.578782983E1,-8.874183248E-1,-8.946471498E0,-1.873471284E0,9.183504680E0
1.579789283E1,-1.316651170E0,-7.182449566E0,-1.358339771E0,7.427397862E0
1.580795483E1,-1.970145785E0,-4.821132216E0,-3.471550405E-1,5.219703716E0
1.581801683E1,-2.435158474E0,-1.991445876E0,9.614389586E-1,3.289410030E0
1.582807983E1,-2.275021802E0,7.939133066E-1,2.154242885E0,3.232148658E0
1.583814183E1,-1.645545210E0,4.471406740E0,2.550728545E0,5.404397597E0
1.584820383E1,5.317984164E-2,1.004799688E1,1.641169592E0,1.018128219E1
1.585826683E1,2.927407639E0,1.540894872E1,1.225985706E-1,1.568503894E1
1.586832883E1,5.149939864E0,1.806293325E1,-1.248621447E0,1.882419968E1
1.587839083E1,4.854367790E0,1.868861807E1,-9.274420774E-1,1.933104966E1
1.588845383E1,2.346232410E0,1.747929108E1,1.399721832E0,1.769151334E1
1.589851583E1,1.100677974E0,1.530423445E1,1.234241974E0,1.539332444E1
1.590857783E1,2.094525710E0,1.434029990E1,-1.660728528E0,1.458729784E1
1.591864083E1,4.596842087E0,1.611438138E1,-4.323848745E0,1.730606577E1
1.592870283E1,6.686177663E0,1.863449858E1,-6.197484920E0,2.074507962E1
1.593876483E1,6.965603235E0,1.978114459E1,-6.564467869E0,2.197511201E1
1.594882783E1,6.316524290E0,1.835651961E1,-6.441931279E0,2.045382042E1
1.595888983E1,5.949230855E0,1.633207556E1,-6.647778997E0,1.860975565E1
1.596895183E1,6.500640247E0,1.620960212E1,-6.032414514E0,1.847700055E1
1.597901483E1,7.188082189E0,1.656559464E1,-4.807839156E0,1.868696788E1
1.598907683E1,7.553665899E0,1.757608121E1,-3.149181712E0,1.938798197E1
1.599913883E1,6.957317730E0,1.833731034E1,-1.344533325E0,1.965881457E1
1.600920183E1,4.859516848E0,1.705175671E1,-5.611350667E-1,1.773956548E1
1.601926383E1,2.050872737E0,1.387134735E1,-7.489382049E-1,1.404212465E1
1.602932583E1,-1.504484202E-1,1.051564549E1,-1.099837875E0,1.057407576E1
1.603938883E1,-1.615019967E0,7.362694082E0,-1.134355159E0,7.622618662E0
1.604945083E1,-2.535487485E0,4.255781307E0,-5.707864809E-1,4.986598894E0
1.605951283E1,-2.773578798E0,1.331320372E0,2.578306353E-1,3.087333788E0
1.606957583E1,-2.604269160E0,-1.540069479E0,9.487341285E-1,3.170824547E0
1.607963783E1,-2.143613816E0,-4.340058396E0,1.043075445E0,4.951685921E0
1.608969983E1,-1.355551380E0,-6.808386809E0,5.707250851E-1,6.965441666E0
1.609976283E1,-5.111827420E-1,-9.081951485E0,-9.411035120E-2,9.096813031E0
1.610982483E1,1.522960673E-1,-1.115884740E1,-5.015413777E-1,1.117115093E1
1.611988683E1,5.275482946E-1,-1.361408390E1,-5.166301543E-1,1.363409309E1
1.612994983E1,9.023545256E-1,-1.524436481E1,-4.546327114E-1,1.527781375E1
1.614001183E1,1.229836390E0,-1.580186641E1,-3.586869192E-1,1.585371048E1
1.615007383E1,1.475843078E0,-1.606387313E1,9.391779508E-3,1.613152878E1
1.616013683E1,1.173249814E0,-1.597508199E1,5.205010476E-1,1.602656174E1
1.617019883E1,3.499678801E-1,-1.472134774E1,1.404378408E0,1.479232353E1
1.618026083E1,2.851321623E-3,-1.077952917E1,2.177847510E0,1.099733045E1
1.619032383E1,-4.492720937E-1,-8.347743512E0,2.196802429E0,8.643645532E0
1.620038583E1,-1.339291443E0,-7.594382985E0,1.511606403E0,7.858327329E0
1.621044783E1,-2.183815763E0,-7.442233171E0,2.335377932E-1,7.759537729E0
1.622051083E1,-2.944612487E0,-7.389531047E0,-1.305689102E0,8.061062947E0
1.623057283E1,-3.646310232E0,-7.363803298E0,-2.363135834E0,8.550180600E0
1.624063483E1,-4.174090442E0,-7.496318162E0,-2.474501903E0,8.929780326E0
1.625069783E1,-3.921871672E0,-8.349992936E0,-1.869627909E0,9.412702479E0
1.626075983E1,-3.039984959E0,-9.544925249E0,-1.148887902E0,1.008300798E1
1.627082183E1,-2.074540219E0,-1.033342170E1,-6.028923726E-1,1.055683666E1
1.628088483E1,-1.182019322E0,-1.069492580E1,-2.954298399E-2,1.076008738E1
1.629094683E1,-5.661530376E-1,-1.086110718E1,6.854421937E-1,1.089743132E1
1.630100883E1,-3.309591668E-1,-1.093930316E1,1.469802319E0,1.104256340E1
1.631107183E1,-4.452773856E-1,-1.101673433E1,2.186052323E0,1.124035284E1
1.632113383E1,-8.817978349E-1,-1.114072337E1,2.815723774E0,1.152482473E1
1.633119583E1,-1.625855442E0,-1.133976025E1,3.092990554E0,1.186592428E1
1.634126358E1,-2.603563986E0,-1.170396811E1,2.398536631E0,1.222760782E1
1.635132558E1,-3.376654188E0,-1.194580077E1,7.928485286E-1,1.243915424E1
1.636138758E1,-3.593980576E0,-1.188091772E1,-7.433115023E-1,1.243484677E1
1.637145058E1,-3.290935761E0,-1.147669269E1,-1.714304227E0,1.206165711E1
1.638151258E1,-2.554091279E0,-1.021373972E1,-2.595099556E0,1.084335755E1
1.639157458E1,-1.602537038E0,-8.038049244E0,-2.989088455E0,8.724277070E0
1.640163758E1,-7.927619898E-1,-4.869928401E0,-2.779670427E0,5.663147701E0
1.641169958E1,-3.922956915E-1,-1.008813100E0,-1.809121506E0,2.108203122E0
1.642176158E1,1.770474042E-1,6.148671779E0,-6.636390229E-1,6.186915805E0
1.643182458E1,4.840548188E0,2.725824821E1,3.624572039E-2,2.768473074E1
1.644188658E1,1.648380612E1,4.110129036E1,2.209626250E-1,4.428409148E1
1.645194858E1,2.352992318E1,3.085102309E1,-5.722612656E0,3.921978080E1
1.646201158E1,1.947633391E1,1.698515575E1,-6.430577155E0,2.663034774E1
1.647207358E1,9.373411796E0,9.834146662E0,3.775512064E-1,1.359094677E1
1.648213558E1,1.584838832E0,8.926223175E0,8.654300165E-1,9.107038125E0
1.649219858E1,-1.343473079E0,1.313709143E1,-5.705531770E0,1.438545043E1
1.650226058E1,-1.907395367E-1,2.135585589E1,-1.276501673E1,2.488080816E1
1.651232258E1,1.817214199E0,2.629600468E1,-1.424414477E1,2.996127150E1
1.652238558E1,4.062803895E0,2.331739794E1,-8.818081845E0,2.525798863E1
1.653244758E1,4.624716641E0,1.768396819E1,-2.316827055E0,1.842494023E1
1.654250958E1,4.843035009E0,1.485882513E1,5.789178383E-1,1.563888801E1
1.655257258E1,4.913729893E0,1.403984072E1,1.041213691E-1,1.487523815E1
