"Time (s)","Linear Acceleration x (m/s^2)","Linear Acceleration y (m/s^2)","Linear Acceleration z (m/s^2)","Absolute acceleration (m/s^2)"
2.953150001E-2,-3.294233590E-2,6.996164292E-2,-2.869497693E-1,2.971868083E-1
3.959650005E-2,5.005114272E-2,1.063509125E-1,-1.149042195E-1,1.643733954E-1
4.966150003E-2,7.947506279E-2,1.359236442E-1,7.019991696E-2,1.723935932E-1
5.972550000E-2,9.491551280E-2,1.368907736E-1,1.543992376E-1,2.271280763E-1
6.979050004E-2,1.014334772E-1,9.074045464E-2,8.810584545E-2,1.621271736E-1
7.985550002E-2,1.636444896E-1,4.385616392E-2,-5.254892707E-3,1.695007256E-1
8.992050000E-2,2.833654261E-1,3.667052060E-2,-8.504775167E-2,2.981171109E-1
9.998450003E-2,3.794185147E-1,6.454536706E-2,-1.308881682E-1,4.065171906E-1
1.100495000E-1,4.221813224E-1,8.097823575E-2,-2.040257263E-1,4.758371997E-1
1.201145000E-1,4.086646063E-1,6.829811007E-2,-2.874216396E-1,5.042644060E-1
1.301785000E-1,3.272176431E-1,6.323661402E-2,-3.916324711E-1,5.142433740E-1
1.402435000E-1,2.761821947E-1,3.062932357E-2,-4.269601786E-1,5.094209990E-1
1.503085000E-1,2.332229206E-1,2.385678604E-2,-3.566936034E-1,4.268400211E-1
1.603725000E-1,2.085457702E-1,1.632776499E-2,-3.879288447E-1,4.407342995E-1
1.704375000E-1,1.959385154E-1,-3.860258684E-2,-5.429695219E-1,5.785308663E-1
1.805025000E-1,2.041790695E-1,-1.028943309E-1,-7.089696354E-1,7.449256873E-1
1.905665000E-1,2.618014064E-1,-3.901656970E-2,-7.645205230E-1,8.090450538E-1
2.006315000E-1,4.001552264E-1,5.824382275E-2,-7.137643522E-1,8.203512044E-1
2.106965000E-1,4.263078486E-1,9.800722808E-2,-5.924451524E-1,7.364340141E-1
2.207605000E-1,3.348178540E-1,6.221393600E-2,-4.741173881E-1,5.837472629E-1
2.308255000E-1,2.770186389E-1,-1.416414902E-2,-4.365560442E-1,5.172244476E-1
2.408905000E-1,4.138393921E-1,9.206718788E-2,-5.150397116E-1,6.670871863E-1
2.509545001E-1,6.472411644E-1,1.967988601E-1,-5.020097762E-1,8.424160087E-1
2.610195000E-1,8.204044826E-1,2.743253383E-1,-4.544105172E-1,9.771421720E-1
2.710845000E-1,8.795525772E-1,2.546690458E-1,-4.639175051E-1,1.026493308E0
2.811485000E-1,9.101264984E-1,2.233292855E-1,-5.116629446E-1,1.067710252E0
2.912135000E-1,9.103030843E-1,3.322982888E-1,-6.734706044E-1,1.180100213E0
3.012785000E-1,7.639071500E-1,3.773969860E-1,-7.742280704E-1,1.151265271E0
3.113425000E-1,5.280030252E-1,2.209433292E-1,-7.872246766E-1,9.733066530E-1
3.214075000E-1,3.382610235E-1,2.554794699E-3,-7.647900796E-1,8.362600749E-1
3.314725000E-1,2.958675406E-1,-1.480531083E-1,-7.551813501E-1,8.244732840E-1
3.415365000E-1,4.155163370E-1,-1.740227857E-1,-8.301701367E-1,9.445211550E-1
3.516015000E-1,6.191308214E-1,-1.887375963E-1,-8.099709302E-1,1.036820988E0
3.616665000E-1,8.418132587E-1,-1.933348234E-1,-7.436623353E-1,1.139763829E0
3.717305000E-1,9.385256208E-1,-2.001487300E-1,-6.226951379E-1,1.143957643E0
3.817955000E-1,9.001490289E-1,-2.697914073E-1,-4.764574438E-1,1.053597349E0
3.918605000E-1,7.433652967E-1,-3.861745338E-1,-4.234565270E-1,9.386363328E-1
4.019245000E-1,5.656945062E-1,-4.694429778E-1,-5.232351691E-1,9.023092740E-1
4.119895000E-1,4.453468213E-1,-5.730139777E-1,-6.134810954E-1,9.502830443E-1
4.220545000E-1,3.909162603E-1,-6.548516080E-1,-6.204726112E-1,9.831746601E-1
4.321185000E-1,3.862757272E-1,-6.934020084E-1,-5.548586655E-1,9.684438142E-1
4.421835000E-1,5.555470655E-1,-5.780288422E-1,-5.016285378E-1,9.457172274E-1
4.522485000E-1,6.682942837E-1,-4.752020466E-1,-5.077283531E-1,9.644803343E-1
4.623125001E-1,6.497427495E-1,-4.198881175E-1,-5.063226825E-1,9.245725123E-1
4.723775000E-1,5.406211339E-1,-4.160479586E-1,-4.206773454E-1,8.014590090E-1
4.824425000E-1,4.556260072E-1,-4.070928016E-1,-3.453932744E-1,7.018661707E-1
4.925065000E-1,3.193465965E-1,-3.942394522E-1,-4.217386150E-1,6.597502965E-1
5.025715000E-1,1.193567280E-1,-4.429105058E-1,-4.457233089E-1,6.395975397E-1
5.126365000E-1,-1.276732229E-2,-4.913731062E-1,-3.420954448E-1,5.988654502E-1
5.227005000E-1,-9.350808799E-2,-5.573601043E-1,-2.089537597E-1,6.025410543E-1
5.327655000E-1,-2.023339806E-1,-5.824063602E-1,-3.447810709E-2,6.175151399E-1
5.428305000E-1,-2.748158466E-1,-6.324401075E-1,2.306609631E-1,7.271235926E-1
5.528945000E-1,-2.311326141E-1,-5.985454063E-1,4.991171587E-1,8.128941055E-1
5.629595000E-1,-1.818144199E-1,-5.137154634E-1,7.434033036E-1,9.217421182E-1
5.730245000E-1,-1.934966451E-1,-4.083306572E-1,9.088344830E-1,1.014965514E0
5.830885000E-1,-3.322124809E-1,-2.849354035E-1,8.458301497E-1,9.523560042E-1
5.931535000E-1,-5.368901718E-1,-2.552271625E-1,7.107056737E-1,9.265497912E-1
6.032185000E-1,-5.580841358E-1,-2.731224199E-1,7.548077130E-1,9.776443333E-1
6.132825000E-1,-4.319235876E-1,-2.624152909E-1,8.957718033E-1,1.028507119E0
6.233475000E-1,-1.310754253E-1,-9.076793656E-2,9.424068564E-1,9.557982363E-1
6.334115000E-1,1.856786254E-1,2.609827231E-1,9.815639055E-1,1.032499992E0
6.434765000E-1,1.888378760E-1,5.127429253E-1,1.108819783E0,1.236141724E0
6.535415000E-1,-1.054900561E-1,5.346636982E-1,1.131558436E0,1.255952991E0
6.636065000E-1,-4.136375901E-1,4.629506680E-1,1.070662023E0,1.237633445E0
6.736705000E-1,-6.727454035E-1,4.285022356E-1,8.631601274E-1,1.175264204E0
6.837358750E-1,-7.492259610E-1,3.628539374E-1,5.185275757E-1,9.807514299E-1
6.937998750E-1,-6.701113790E-1,3.701647112E-1,2.415221661E-1,8.027478623E-1
7.038648750E-1,-6.403984603E-1,4.396720254E-1,2.075656307E-1,8.040554514E-1
7.139298750E-1,-7.737971306E-1,5.101999712E-1,3.285842836E-1,9.833786866E-1
7.239948750E-1,-9.427910185E-1,4.006649575E-1,6.321489161E-1,1.203743978E0
7.340588750E-1,-9.475790110E-1,2.554117884E-1,8.465493572E-1,1.296065962E0
7.441238750E-1,-8.154611734E-1,2.053596224E-1,9.760739547E-1,1.288359369E0
7.541878750E-1,-7.268147528E-1,8.493183061E-2,1.124933540E0,1.341994251E0
7.642528750E-1,-5.870233217E-1,-6.898720443E-2,1.320996528E0,1.447199863E0
7.743178750E-1,-4.339195347E-1,-7.904046848E-2,1.520847343E0,1.583511982E0
7.843818750E-1,-3.414759323E-1,-1.093967271E-1,1.617750909E0,1.657012812E0
7.944468751E-1,-2.296131420E-1,-5.709170200E-2,1.681098474E0,1.697667145E0
8.045118750E-1,-1.665509212E-1,4.713045850E-2,1.629624265E0,1.638790937E0
8.145758750E-1,-2.082778215E-1,8.801419035E-2,1.460069629E0,1.477474017E0
8.246408750E-1,-3.319744992E-1,5.318795465E-2,1.274318206E0,1.317923714E0
8.347058750E-1,-4.865976852E-1,4.849695280E-2,1.003134284E0,1.115978339E0
8.447698750E-1,-6.509044451E-1,-6.104463905E-2,7.902283913E-1,1.025604190E0
8.548348750E-1,-6.795590177E-1,-7.567605369E-2,7.470507967E-1,1.012725144E0
8.648998750E-1,-5.837237379E-1,-7.813349225E-2,9.867147177E-1,1.149105817E0
8.749638750E-1,-3.609790277E-1,1.202868739E-1,1.143085052E0,1.204748200E0
8.850288750E-1,-1.827889314E-1,3.106707537E-1,1.156499734E0,1.211371019E0
8.950938750E-1,-5.900571495E-2,3.351257099E-1,1.052857836E0,1.106481152E0
9.051578750E-1,5.278486222E-2,3.285985362E-1,1.102286105E0,1.151432975E0
9.152228750E-1,3.456055284E-2,3.249318203E-1,1.435679723E0,1.472396477E0
9.252878750E-1,-1.574473912E-1,4.209419319E-1,1.727309019E0,1.784818825E0
9.353518750E-1,-3.326747033E-1,4.692215876E-1,1.654562055E0,1.751689741E0
9.454168750E-1,-4.090393397E-1,4.445984508E-1,1.156725436E0,1.304988390E0
9.554818750E-1,-3.602873021E-1,4.001294987E-1,6.406858510E-1,8.368924157E-1
9.655458750E-1,-2.022104582E-1,3.252651116E-1,4.203545791E-1,5.686690025E-1
9.756108750E-1,6.531105995E-2,4.320665520E-1,1.357483739E-1,4.575747600E-1
9.856758750E-1,7.459608757E-1,9.589445364E-1,-9.217515671E-1,1.525010886E0
9.957398750E-1,1.171242611E0,6.980726181E-1,-2.232656971E0,2.616079468E0
1.005804875E0,1.050415747E0,-1.859948136E-1,-3.169055813E0,3.343782597E0
1.015869875E0,6.297220293E-1,-1.062795179E0,-3.337103037E0,3.558418203E0
1.025933875E0,-3.851850387E-1,-1.048593316E0,-1.969377315E0,2.264147183E0
1.035998875E0,-1.972091300E0,-3.440777971E-1,1.293510522E0,2.383422559E0
1.046063875E0,-2.560703603E0,2.771337560E-1,3.099122529E0,4.029710475E0
1.056127875E0,-1.475377932E0,3.563161656E-1,1.863691816E0,2.403549133E0
1.066192875E0,7.220024943E-2,-9.400378570E-2,3.199011683E-3,1.185741178E-1
1.076257875E0,1.155909458E0,-2.272612457E-1,-6.775624859E-1,1.358994213E0
1.086321875E0,1.746109279E0,2.890454113E-2,-4.572388154E-1,1.805214785E0
1.096386875E0,1.840019071E0,2.028005885E-1,-2.629861253E-1,1.869748636E0
1.106451875E0,1.408315046E0,9.847178936E-2,-5.899659330E-1,1.530067895E0
1.116515875E0,4.436639196E-1,-4.330740273E-1,-7.210388732E-1,9.509405046E-1
1.126580875E0,-7.917732257E-1,-9.948196895E-1,9.203458965E-2,1.274771125E0
1.136645875E0,-1.485704407E0,-9.190425521E-1,1.043402889E0,2.034857829E0
1.146709875E0,-1.220378226E0,-4.751213551E-1,8.961021709E-1,1.586840388E0
1.156774875E0,-6.446783298E-1,-2.978191402E-1,1.158877212E-1,7.195389865E-1
1.166839875E0,-5.614595872E-1,-2.332517181E-1,-2.685117441E-1,6.646365840E-1
1.176903875E0,-1.056500067E0,-3.076676238E-1,-2.515203202E-1,1.128766685E0
1.186968875E0,-1.745922461E0,-4.739158054E-1,-1.366313034E-1,1.814251786E0
1.197033875E0,-2.074208536E0,-6.868849942E-1,-2.087362432E-1,2.194931176E0
1.207097875E0,-1.485018529E0,-8.124672528E-1,-4.672439861E-1,1.756046699E0
1.217162875E0,-5.061139369E-1,-8.108114675E-1,-5.157951719E-1,1.086099080E0
1.227227875E0,8.808947325E-2,-1.004611583E0,-4.276501501E-1,1.095394376E0
1.237291875E0,2.882618845E-1,-1.009971872E0,-3.635167193E-1,1.111432635E0
1.247356875E0,3.967674959E-1,-9.582647976E-1,-3.645569390E-1,1.099362374E0
1.257421875E0,3.671472555E-1,-1.072015215E0,-1.707258332E-1,1.145932389E0
1.267485875E0,4.056061471E-1,-7.485011986E-1,-2.646677846E-1,8.915264589E-1
1.277550875E0,6.704885244E-1,1.216095871E-1,-6.226436824E-1,9.230541199E-1
1.287615875E0,9.521056330E-1,7.937765548E-1,-6.022848469E-1,1.378163050E0
1.297679875E0,1.085171889E0,1.325652666E0,-3.109099048E-1,1.741154212E0
1.307744875E0,6.198300022E-1,1.861220782E0,-5.124558270E-2,1.962385829E0
1.317809875E0,-1.103229260E-1,1.720959381E0,-2.544170308E-1,1.743158159E0
1.327873875E0,-1.179955840E0,7.055732802E-1,-1.339977760E0,1.919809843E0
1.337938875E0,-2.162472256E0,-5.130079503E-1,-2.428155702E0,3.291717414E0
1.348003875E0,-2.493894194E0,-1.398961255E0,-2.602792738E0,3.866669223E0
1.358067875E0,-2.383227451E0,-1.726208427E0,-2.254529650E0,3.707084105E0
1.368132875E0,-2.619452625E0,-1.517868332E0,-2.398232576E0,3.862250098E0
1.378197875E0,-2.803908890E0,-8.913144708E-1,-2.769908500E0,4.040883523E0
1.388261875E0,-2.874098867E0,-6.094552875E-1,-2.480627446E0,3.845177833E0
1.398326875E0,-2.974396741E0,1.800559428E-1,2.090245110E-1,2.987163766E0
1.408391875E0,-3.311528485E0,1.185588755E0,4.040478056E0,5.356986515E0
1.418455875E0,-2.584400321E0,9.583890510E-1,1.663479643E0,3.219440808E0
1.428520875E0,-1.496374406E0,-5.654883188E-1,-1.408331126E0,2.131269566E0
1.438584875E0,-1.171027141E0,-2.621820163E0,-1.808817451E0,3.393680318E0
1.448649875E0,-1.112555569E0,-1.892825568E0,-2.120139585E0,3.052140295E0
1.458714875E0,-1.600538460E0,1.943789899E-1,-1.470060766E0,2.181876534E0
1.468778875E0,-2.441127166E0,1.876978444E0,-1.880017242E-1,3.085043689E0
1.478843875E0,-2.622437044E0,1.680837103E0,4.973302495E-1,3.154318753E0
1.488908875E0,-2.438015277E0,-7.785117406E-1,4.515991759E-1,2.598834515E0
1.498972875E0,-2.513863020E0,-2.274551686E0,2.953340918E-2,3.390275045E0
1.509037875E0,-2.661111990E0,-2.440105657E0,-7.179796100E-2,3.611203066E0
1.519102875E0,-2.728770707E0,-2.314703931E0,-3.471518245E-1,3.595074165E0
1.529166875E0,-2.947046098E0,-2.364040398E0,-6.728241947E-1,3.837507017E0
1.539231875E0,-3.171487670E0,-2.100402893E0,-9.320040751E-1,3.916459875E0
1.549296875E0,-3.245874486E0,-2.068394065E0,-1.452142120E0,4.113717531E0
1.559360875E0,-3.307111790E0,-2.186797258E0,-1.928675870E0,4.408952399E0
1.569425875E0,-2.945109792E0,-2.755124985E0,-2.563824846E0,4.778868403E0
1.579490875E0,-2.331917842E0,-4.005681276E0,-2.243841671E0,5.149577531E0
1.589554875E0,-1.401089496E0,-4.166214243E0,-1.364575388E0,4.602440535E0
1.599619875E0,-6.503270325E-1,-3.439092511E0,-7.141683948E-1,3.572158877E0
1.609684875E0,2.081102988E-1,-2.461738601E0,-1.401511811E-1,2.474491703E0
1.619748875E0,6.357218572E-1,-1.168200012E0,-3.502365232E-2,1.330436096E0
1.629813875E0,8.139528841E-1,1.972061187E0,4.030674322E-1,2.171176634E0
1.639878875E0,-7.397701362E-1,5.707904570E0,3.542244996E0,6.758323317E0
1.649942875E0,-2.983886772E0,9.316450560E0,2.885389255E0,1.019927951E1
1.660007875E0,-4.763640053E0,1.153894916E1,1.813835531E0,1.261465868E1
1.670072875E0,-6.121529004E0,1.270072776E1,2.266265012E0,1.427997059E1
1.680137042E0,-6.482698066E0,1.371524775E1,4.471672496E0,1.581547501E1
1.690202042E0,-5.216329150E0,1.258809519E1,7.261522633E0,1.544020535E1
1.700267042E0,-3.471331719E0,9.947014296E0,5.878011768E0,1.206417256E1
1.710331042E0,-1.663175881E0,6.558588493E0,1.915003764E0,7.031961067E0
1.720396042E0,-7.682469535E-1,3.311940129E0,-2.198439065E0,4.048738707E0
1.730461042E0,1.610215017E-1,1.004419502E0,-3.589031200E0,3.730406334E0
1.740525042E0,1.195728704E0,-2.338365859E-1,-4.018677882E0,4.199311682E0
1.750590042E0,1.802287281E0,-1.272424877E0,-4.398530845E0,4.920810716E0
1.760655042E0,2.236877199E0,-2.056272202E0,-4.497670386E0,5.427790883E0
1.770719042E0,2.471050584E0,-2.429327484E0,-4.487640365E0,5.669800619E0
1.780784042E0,2.688689798E0,-2.649060001E0,-4.248734828E0,5.683161035E0
1.790848042E0,2.869732166E0,-3.016577386E0,-4.072588041E0,5.824180215E0
1.800913042E0,2.721310829E0,-3.144308057E0,-3.970345090E0,5.749421355E0
1.810978042E0,2.298096669E0,-2.888521609E0,-3.720056193E0,5.240574727E0
1.821042042E0,1.631531919E0,-2.210750377E0,-3.339106585E0,4.324227841E0
1.831107042E0,1.022303357E0,-1.321462551E0,-3.109712421E0,3.530110306E0
1.841172042E0,3.369401009E-1,-2.716429281E-1,-2.867200029E0,2.899681796E0
1.851236042E0,-5.955119439E-1,9.808710104E-1,-2.686691220E0,2.921481152E0
1.861301042E0,-1.418742971E0,2.226073591E0,-2.533594742E0,3.658871077E0
1.871366042E0,-1.859082163E0,3.176101708E0,-2.347181706E0,4.364982303E0
1.881430042E0,-2.120836573E0,4.022558094E0,-2.078315620E0,4.999831718E0
1.891495042E0,-1.800957331E0,5.197132156E0,1.320374969E0,5.656590848E0
1.901560042E0,-1.181632967E0,6.183736362E0,1.198897193E1,1.354142902E1
1.911624042E0,-4.598330788E-1,5.389362879E0,2.229283712E1,2.293964397E1
1.921689042E0,1.538940017E-1,3.797215759E0,1.849561551E1,1.888201059E1
1.931754042E0,6.814034488E-2,2.302633524E0,7.999431308E0,8.324521938E0
1.941818042E0,-9.592573625E-1,1.121142206E0,-1.114810256E0,1.849307016E0
1.951883042E0,-1.684400104E0,6.678572774E-2,-6.429557986E0,6.646869935E0
1.961948042E0,-1.383749431E0,-7.759594309E-1,-8.385130025E0,8.533890148E0
1.972012042E0,-1.203997909E0,-9.407544333E-1,-5.498194181E0,5.706554926E0
1.982077042E0,-1.137151809E0,-1.156172875E0,-3.696768780E0,4.036824168E0
1.992142042E0,-1.067015992E0,-1.493073653E0,-3.490705884E0,3.943706331E0
2.002206042E0,-9.636128803E-1,-1.691130542E0,-3.265748879E0,3.801787479E0
2.012271042E0,-9.070937669E-1,-1.766079567E0,-3.201963943E0,3.767549499E0
2.022336042E0,-7.998767357E-1,-1.596993293E0,-3.107791026E0,3.584488169E0
2.032400042E0,-6.980887710E-1,-1.231228319E0,-3.015374029E0,3.331025614E0
2.042465042E0,-5.078357226E-1,-7.686398864E-1,-3.008796788E0,3.146674834E0
2.052530042E0,-2.928628392E-1,-2.939687669E-1,-2.963164825E0,2.992078217E0
2.062594042E0,-1.270402618E-1,1.496606541E-1,-2.833225660E0,2.840018517E0
2.072659042E0,9.162323803E-2,5.607128978E-1,-2.542547121E0,2.605252317E0
2.082723042E0,6.167159944E-1,1.074922889E0,-9.341384549E-1,1.551906083E0
2.092788042E0,1.683757056E0,1.484543735E0,3.742483481E0,4.364068117E0
2.102853042E0,2.581871985E0,1.382070111E0,8.124068218E0,8.635778202E0
2.112917042E0,2.992194496E0,1.002337309E0,9.402419833E0,9.917832762E0
2.122982042E0,2.629188239E0,8.647289354E-1,6.839171230E0,7.377984144E0
2.133047042E0,1.736193571E0,6.783267170E-1,2.509829611E0,3.126298118E0
2.143111042E0,7.067076400E-1,3.127494389E-1,-1.104229207E0,1.347801930E0
2.153176042E0,-7.277561545E-2,-1.547547483E-1,-2.542839482E0,2.548583519E0
2.163241042E0,-4.864827874E-1,-6.400637072E-1,-2.479304806E0,2.606395859E0
2.173305042E0,-7.575705955E-1,-6.926763690E-1,-1.697117652E0,1.983411728E0
2.183370042E0,-8.793359379E-1,-3.931223416E-1,-5.773875488E-1,1.123010796E0
2.193435042E0,-8.100014088E-1,-2.675978243E-1,-9.369794708E-1,1.267139064E0
2.203499042E0,-4.993087281E-1,-3.308471560E-1,-5.487396274E-1,8.123325829E-1
2.213564042E0,-1.267947518E-1,-1.357922280E-1,1.288293636E-1,2.260828237E-1
2.223629042E0,2.763962576E-1,8.136459053E-2,4.174579415E-1,5.072338916E-1
2.233693042E0,6.964699694E-1,2.055343080E-1,8.472410828E-1,1.115854929E0
2.243758042E0,9.897627251E-1,2.007430995E-1,1.161762155E0,1.539356797E0
2.253823042E0,1.117750967E0,1.831230998E-1,1.107200105E0,1.583917095E0
2.263887042E0,1.106167925E0,1.613498229E-1,9.043824861E-1,1.437897397E0
2.273952042E0,1.020516741E0,1.608984178E-1,4.881904668E-1,1.142660339E0
2.284017042E0,8.987452586E-1,1.797118342E-1,6.804404855E-3,9.165618818E-1
2.294081042E0,7.223183902E-1,1.751024741E-1,-3.050884169E-1,8.034199869E-1
2.304146042E0,5.617137218E-1,1.616807753E-1,-4.180174470E-1,7.186108574E-1
2.314210042E0,4.325626517E-1,1.270751989E-1,-4.451907007E-1,6.336034358E-1
2.324275042E0,3.170111455E-1,4.560301960E-2,-4.512314592E-1,5.533403396E-1
2.334340042E0,2.247737305E-1,-3.794258237E-2,-4.703881071E-1,5.227120056E-1
2.344404042E0,1.860717410E-1,-7.381349623E-2,-4.574809632E-1,4.993595466E-1
2.354469042E0,1.794413639E-1,-1.000774348E-1,-4.147167668E-1,4.628225283E-1
2.364534042E0,1.843166627E-1,-1.536578107E-1,-2.806552416E-1,3.692569831E-1
2.374598042E0,1.784690085E-1,-1.457126141E-1,-1.136996931E-1,2.569260071E-1
2.384663042E0,1.894388236E-1,-8.588799655E-2,1.010398865E-2,2.082448233E-1
2.394728042E0,1.929356048E-1,8.165051937E-3,8.574539758E-2,2.112891120E-1
2.404792042E0,1.838709952E-1,1.014234638E-1,1.106918488E-1,2.373772257E-1
2.414857042E0,1.771777240E-1,1.504962212E-1,8.758303128E-2,2.484186906E-1
2.424922042E0,1.486841325E-1,1.210145599E-1,1.587274197E-2,1.923627794E-1
2.434986042E0,1.248297950E-1,3.970785677E-2,-4.961486734E-2,1.400743612E-1
2.445051042E0,1.076901441E-1,-2.010857463E-2,-1.148580996E-1,1.587258799E-1
2.455116042E0,8.021729372E-2,-1.742879570E-2,-2.127796660E-1,2.280652612E-1
2.465180042E0,7.357149459E-2,-2.571897805E-2,-3.077074579E-1,3.174241804E-1
2.475245042E0,5.777063683E-2,-4.511828542E-2,-3.914564699E-1,3.982603093E-1
2.485310042E0,2.388865337E-2,-8.465364933E-2,-4.399772501E-1,4.486835062E-1
2.495374042E0,-3.379332505E-2,-1.473346317E-1,-3.562842252E-1,3.870244587E-1
2.505439042E0,-1.296332826E-1,-2.195892602E-1,-1.992918936E-1,3.236378996E-1
2.515503042E0,-2.431485692E-1,-2.259574628E-1,-6.835395098E-3,3.320010908E-1
2.525568042E0,-3.504503120E-1,-1.500682050E-1,1.719893434E-1,4.182298669E-1
2.535633042E0,-4.599294848E-1,2.374495804E-2,2.636234353E-1,5.306564516E-1
2.545697042E0,-5.319339987E-1,2.338424331E-1,2.473653253E-1,6.315264576E-1
2.555762042E0,-5.590294844E-1,3.629232270E-1,1.509610748E-1,6.833860397E-1
2.565827042E0,-5.431778289E-1,3.659070611E-1,4.719170809E-2,6.566256076E-1
2.575891042E0,-4.905861441E-1,2.490908021E-1,-3.057739299E-2,5.510498793E-1
2.585956042E0,-4.889617145E-1,4.556559741E-2,-1.205502909E-1,5.056601176E-1
2.596021042E0,-5.196779789E-1,-1.265302384E-1,-2.111381698E-1,5.750255905E-1
2.606085042E0,-5.196259386E-1,-1.591571170E-1,-3.124799188E-1,6.268857979E-1
2.616150042E0,-5.234154826E-1,-9.878344595E-2,-3.849443893E-1,6.571941261E-1
2.626215042E0,-5.288338415E-1,1.345385849E-2,-4.166936739E-1,6.734091298E-1
2.636279042E0,-5.665840139E-1,7.944962740E-2,-3.731604956E-1,6.830654753E-1
2.646344042E0,-5.985136852E-1,1.415417951E-1,-3.177458847E-1,6.922536806E-1
2.656409042E0,-6.052222688E-1,1.337392706E-1,-2.840927831E-1,6.818276150E-1
2.666473042E0,-6.029608581E-1,7.426665545E-2,-2.577376280E-1,6.599287973E-1
2.676538042E0,-5.806512819E-1,8.436947465E-3,-2.566536273E-1,6.349001320E-1
2.686602417E0,-5.476599025E-1,-4.193856955E-2,-2.339787829E-1,5.970228498E-1
2.696666417E0,-5.129421326E-1,-5.817745686E-2,-1.284224339E-1,5.319648197E-1
2.706731417E0,-4.602575501E-1,-4.033701718E-2,3.791857224E-2,4.635751347E-1
2.716795417E0,-3.864855691E-1,-1.840177238E-2,1.963278304E-1,4.338828613E-1
2.726860417E0,-3.193112574E-1,1.494372904E-2,2.289026688E-1,3.931659012E-1
2.736925417E0,-2.648130148E-1,4.682976544E-2,9.030494671E-2,2.836792963E-1
2.746989417E0,-2.208726875E-1,1.949227810E-2,-9.397297818E-2,2.408227847E-1
2.757054417E0,-1.936179383E-1,-3.309114754E-2,-2.415017374E-1,3.112973165E-1
2.767119417E0,-1.657653478E-1,-7.650672376E-2,-3.347677141E-1,3.813146361E-1
2.777183417E0,-1.458799175E-1,-5.945799708E-2,-3.630874972E-1,3.957887497E-1
2.787248417E0,-1.216247168E-1,8.566170931E-3,-3.704801685E-1,3.900275711E-1
2.797313417E0,-8.937286399E-2,5.705654562E-2,-3.686255047E-1,3.835723152E-1
2.807377417E0,-5.310203712E-2,2.164639235E-2,-3.553902956E-1,3.599870204E-1
2.817442417E0,-4.708390005E-2,-1.741768599E-2,-2.834771810E-1,2.878881407E-1
2.827507417E0,-7.140016761E-2,-1.535361886E-2,-1.282084258E-1,1.475503914E-1
2.837571417E0,-1.442979899E-1,-2.643292308E-2,1.808540147E-2,1.478096446E-1
2.847636417E0,-2.240061007E-1,-4.101529419E-2,9.102243662E-2,2.452469602E-1
2.857701417E0,-3.052960296E-1,-8.146925569E-2,5.015043575E-2,3.199343238E-1
2.867765417E0,-3.513478961E-1,-1.569936472E-1,-9.812859435E-2,3.971417510E-1
2.877830417E0,-3.800399275E-1,-2.883624566E-1,-3.128377318E-1,5.704828651E-1
2.887894417E0,-4.073330491E-1,-3.824593592E-1,-4.695905469E-1,7.298703008E-1
2.897959417E0,-4.428167677E-1,-3.643259740E-1,-4.662464877E-1,7.390574351E-1
2.908024417E0,-4.759038587E-1,-2.067657316E-1,-2.403872216E-1,5.718588696E-1
2.918088417E0,-4.423381731E-1,-1.754749417E-2,5.374113780E-2,4.459361880E-1
2.928153417E0,-3.363771237E-1,1.105433661E-1,1.038570384E-1,3.689928042E-1
2.938218417E0,-1.246380429E-1,1.661252439E-1,-9.941472597E-3,2.079208293E-1
2.948282417E0,1.173726947E-1,1.785324508E-1,-2.902009673E-1,3.603703469E-1
2.958347417E0,3.088186847E-1,1.496115375E-1,-6.340247760E-1,7.209299611E-1
2.968412417E0,4.488650179E-1,1.530754280E-1,-8.882902908E-1,1.006961534E0
2.978476417E0,5.951166721E-1,1.508686888E-1,-9.956423197E-1,1.169713146E0
2.988541417E0,7.208067387E-1,1.128968704E-1,-9.908042604E-1,1.230447537E0
2.998606417E0,8.453708509E-1,8.299947202E-2,-8.589606571E-1,1.208037333E0
3.008670417E0,1.008254764E0,9.518974721E-2,-5.910364851E-1,1.172588113E0
3.018735417E0,1.181609505E0,1.339141023E-1,-3.143824931E-1,1.230028602E0
3.028800417E0,1.324346983E0,1.707316804E-1,-1.651025659E-1,1.345475044E0
3.038864417E0,1.395255436E0,1.604633850E-1,-1.645231799E-1,1.414055907E0
3.048929417E0,1.385958071E0,1.223974264E-1,-2.839993373E-1,1.420041030E0
3.058993417E0,1.346908318E0,-5.557310700E-2,-4.479353106E-1,1.420526814E0
3.069058417E0,1.256279984E0,-4.321244395E-1,-5.301945251E-1,1.430411537E0
3.079123417E0,1.141288933E0,-9.334424901E-1,-4.338558000E-1,1.536907989E0
3.089187417E0,1.040977464E0,-1.569231298E0,-1.259478557E-1,1.887321861E0
3.099252417E0,1.049841550E0,-2.227043644E0,4.463582435E-1,2.502224281E0
3.109317417E0,1.163414213E0,-2.816849948E0,1.250985476E0,3.294410557E0
3.119381417E0,1.317845171E0,-3.283740762E0,1.732397705E0,3.939653677E0
3.129446417E0,1.210191938E0,-3.592000124E0,1.200380164E0,3.975920265E0
3.139511417E0,7.938660903E-1,-3.886841295E0,-1.408130859E-1,3.969582717E0
3.149575417E0,3.456126912E-1,-4.276616691E0,-1.336878882E0,4.494011971E0
3.159640417E0,-2.519039889E-2,-4.665248371E0,-2.136376279E0,5.131206537E0
3.169705417E0,-3.547867533E-1,-5.047626454E0,-2.327860751E0,5.569860154E0
3.179769417E0,-4.527100373E-1,-5.499840757E0,-1.984353350E0,5.864371488E0
3.189834417E0,-3.439924643E-1,-5.891505387E0,-1.775977295E0,6.162975085E0
3.199899417E0,-3.950283878E-1,-6.064770082E0,-1.125577903E0,6.180971541E0
3.209963417E0,-6.179635710E-1,-5.982830710E0,-4.388007903E-1,6.030645771E0
3.220028417E0,-7.317981154E-1,-5.610970598E0,-1.265923651E0,5.798368928E0
3.230092417E0,-7.660231843E-1,-5.052128225E0,-3.139167478E0,5.997096262E0
3.240157417E0,-8.805865842E-1,-4.328999557E0,-3.536543669E0,5.658870118E0
3.250222417E0,-1.133987661E0,-3.583867816E0,-2.663968647E0,4.607251403E0
3.260286417E0,-1.287887547E0,-2.670807551E0,-1.435457529E0,3.294298958E0
3.270351417E0,-1.380137899E0,-1.795851250E0,-6.436878115E-2,2.265834432E0
3.280416417E0,-1.672368142E0,-1.015506408E0,4.988706985E-1,2.019143492E0
3.290480417E0,-2.289556226E0,-6.936528540E-1,3.386672223E-1,2.416178280E0
3.300545417E0,-2.949539351E0,-7.215008032E-1,-1.550509975E0,3.409461390E0
3.310610417E0,-3.492529338E0,-8.325756812E-1,-3.640256610E0,5.112965052E0
3.320674417E0,-3.706664608E0,-4.494924241E-1,-3.637394105E0,5.212680868E0
3.330739417E0,-3.209809737E0,7.036632872E-1,-1.729736198E0,3.713489987E0
3.340804417E0,-2.562895724E0,1.944539512E0,-1.006481230E-2,3.217105797E0
3.350868417E0,-2.178197758E0,3.114086723E0,-3.270084590E-1,3.814317256E0
3.360933417E0,-2.290185971E0,3.988979874E0,-1.885166885E0,4.970992496E0
3.370997417E0,-1.979537145E0,4.305002584E0,-2.984875244E0,5.600097747E0
3.381062417E0,-1.653885532E0,3.765275928E0,-2.108850950E-1,4.117901491E0
3.391127417E0,-2.254199283E0,2.783981579E0,1.179869593E0,3.771479828E0
3.401191417E0,-3.177141050E0,1.647112117E0,-1.732113384E0,3.975854670E0
3.411256417E0,-3.679989610E0,4.880068642E-1,-2.936993272E0,4.733540293E0
3.421321417E0,-2.574729027E0,-4.325542098E-1,-9.547690398E-1,2.779913060E0
3.431385417E0,-8.765520054E-1,-1.047440391E0,1.266452824E0,1.862626518E0
3.441450417E0,-1.154345620E-1,-1.262639562E0,1.199093776E0,1.745110222E0
3.451515417E0,-1.168495882E-1,-1.016897460E0,1.560972691E-2,1.023707934E0
3.461579417E0,-6.147049177E-1,-7.527810681E-1,-1.083483213E-1,9.778961249E-1
3.471644417E0,-1.331698687E0,-6.288124949E-1,1.180669785E-1,1.477418816E0
3.481709417E0,-1.867813518E0,-3.853467143E-1,-1.457972817E0,2.400604958E0
3.491773417E0,-2.119684671E0,-3.735774386E-1,-1.124710177E0,2.428496693E0
3.501838417E0,-1.817171368E0,-6.150040027E-1,2.164457971E-1,1.930593299E0
3.511903417E0,-1.312647874E0,-8.359965947E-1,1.868851984E-1,1.567437662E0
3.521967417E0,-6.316618431E-1,-8.505669791E-1,1.095867616E-1,1.065115077E0
3.532032417E0,3.592061520E-1,-6.165783656E-1,1.986375171E-1,7.407123623E-1
3.542096417E0,1.426476790E0,-3.920555171E-1,-1.309597966E-1,1.485157914E0
3.552161417E0,2.603869795E0,-6.167774633E-1,5.084031218E-1,2.723788921E0
3.562226417E0,3.348424416E0,-1.208158715E0,1.112225786E0,3.729428877E0
3.572290417E0,3.505403445E0,-1.880917713E0,1.741140023E0,4.342496210E0
3.582355417E0,3.033012155E0,-2.681239568E0,1.253416749E0,4.237836936E0
3.592420417E0,2.662405686E0,-2.871137544E0,4.459150976E-1,3.940897754E0
3.602484417E0,2.375274653E0,-1.601348007E0,9.169053948E-1,3.007816587E0
3.612549417E0,2.179854859E0,1.246988904E-1,1.449710702E0,2.620873545E0
3.622614417E0,2.518292286E0,1.083721195E0,1.527530125E0,3.138406594E0
3.632678417E0,2.968479359E0,1.127874836E0,1.648552287E0,3.577945778E0
3.642743417E0,3.238559327E0,6.505687418E-1,2.052352229E0,3.888914485E0
3.652808417E0,3.126167071E0,-9.323677719E-3,2.371354680E0,3.923815809E0
3.662872417E0,3.480770879E0,-7.338241026E-1,3.036832725E0,4.677244566E0
3.672937417E0,3.930605366E0,-1.068587139E0,3.456941137E0,5.342469376E0
3.683002000E0,4.138349921E0,-7.486634588E-1,3.698639889E0,5.600569085E0
3.693067000E0,4.701547301E0,-2.425392893E-1,4.117591136E0,6.254432755E0
3.703132000E0,5.721023383E0,-7.283081317E-1,3.311164788E0,6.650139362E0
3.713196000E0,7.624337686E0,-1.752328670E-1,4.279695250E0,8.745114244E0
3.723261000E0,9.662012819E0,1.709864436E0,5.966646786E0,1.148385832E1
3.733326000E0,1.056005510E1,1.307850526E0,5.473159912E0,1.196581447E1
3.743390000E0,1.072592891E1,-1.009656268E-1,5.551152998E0,1.207770858E1
3.753455000E0,1.094202914E1,-1.556440806E0,5.589656913E0,1.238526439E1
3.763520000E0,1.113285185E1,-2.417823380E0,5.889307419E0,1.282459364E1
3.773584000E0,1.042331445E1,-9.552578670E-1,5.562626989E0,1.185330421E1
3.783649000E0,8.584149365E0,-6.786611778E-1,5.409780772E0,1.016926395E1
3.793714000E0,6.847213490E0,-8.098943317E-1,5.105481729E0,8.579405870E0
3.803778000E0,5.712889321E0,-1.018357510E0,4.803565426E0,7.533153206E0
3.813843000E0,4.999952350E0,-1.242794697E0,4.347137620E0,6.741043513E0
3.823908000E0,4.690286733E0,-1.496383762E0,3.702328897E0,6.159966985E0
3.833972000E0,4.490071052E0,-1.916703550E0,3.377406725E0,5.936443947E0
3.844037000E0,4.006331486E0,-2.234129884E0,3.113634734E0,5.544073373E0
3.854101000E0,3.324284186E0,-2.111483659E0,2.562307786E0,4.698366714E0
3.864166000E0,2.629217475E0,-1.731673819E0,2.753422276E0,4.182441031E0
3.874231000E0,1.848699555E0,-1.335619830E0,2.498551501E0,3.382946937E0
3.884295000E0,1.154452039E0,-1.094550823E0,2.186838189E0,2.704267420E0
3.894360000E0,7.037223440E-1,-1.056516732E0,1.908379161E0,2.292021764E0
3.904425000E0,4.198002630E-1,-1.149962401E0,1.696461740E0,2.092039249E0
3.914489000E0,3.427485788E-1,-1.332120856E0,1.782725421E0,2.251695470E0
3.924554000E0,3.843076640E-1,-1.402714875E0,1.859882062E0,2.361030006E0
3.934619000E0,2.855745041E-1,-1.603474932E0,1.720389132E0,2.369055385E0
3.944683000E0,4.187425017E-1,-1.611196180E0,1.938153183E0,2.554943478E0
3.954748000E0,5.561275113E-1,-1.534061465E0,2.181410803E0,2.724183452E0
3.964812000E0,5.658140087E-1,-1.229306924E0,1.731552343E0,2.197638397E0
3.974877000E0,5.874171317E-1,-6.680139828E-1,1.448853208E0,1.700140343E0
3.984942000E0,6.637443459E-1,-2.881443554E-1,1.130571426E0,1.342302304E0
3.995006000E0,8.102825868E-1,-4.015867710E-3,9.145688474E-1,1.221887955E0
4.005071000E0,1.074728762E0,4.673477742E-1,9.403983378E-1,1.502599377E0
4.015136000E0,1.302358528E0,6.558219534E-1,2.754494655E-1,1.483951677E0
4.025200000E0,2.064851822E0,1.129151137E0,5.069477499E-2,2.353967989E0
4.035265000E0,3.188562709E0,1.640554757E0,2.201070312E-1,3.592603397E0
4.045330000E0,4.588058692E0,2.010068089E0,1.189527147E0,5.148361984E0
4.055394000E0,5.879487605E0,2.571704847E0,1.709868529E0,6.641211539E0
4.065459000E0,6.397673703E0,3.181827301E0,1.732164547E-1,7.147325215E0
4.075524000E0,6.616347290E0,4.380464995E0,-6.377259904E-1,7.960604215E0
4.085588000E0,6.758982514E0,5.204832940E0,-5.704866649E-1,8.549829565E0
4.095653000E0,5.974876158E0,5.412071126E0,-8.903229292E-1,8.110630918E0
4.105717000E0,4.174721941E0,4.751376103E0,-1.478866381E0,6.495454098E0
4.115782000E0,2.614225799E0,3.891925449E0,-6.113649881E-1,4.728110339E0
4.125847000E0,1.098267606E0,3.278663625E0,-6.194692290E-1,3.512772270E0
4.135911000E0,7.163482368E-2,3.393369039E0,-1.346539505E0,3.651472801E0
4.145976000E0,4.680257589E-1,5.060286845E0,-1.148043491E0,5.209947689E0
4.156041000E0,1.240556236E0,7.551329936E0,-9.796126896E-1,7.714998678E0
4.166105000E0,1.981849426E0,9.143540792E0,-2.126743430E0,9.594535058E0
4.176170000E0,2.041756635E0,9.231261891E0,-3.073351511E0,9.941350802E0
4.186235000E0,1.734396137E0,8.214719356E0,-3.506962897E0,9.098820408E0
4.196299000E0,1.405828810E0,6.258197145E0,-4.019634486E0,7.569600224E0
4.206364000E0,1.035147205E0,3.642383242E0,-4.360831799E0,5.775408159E0
4.216428000E0,1.052232769E0,1.084997642E-1,-3.523369600E0,3.678736106E0
4.226493000E0,1.216325375E0,-3.223118584E0,-2.554259094E0,4.288610538E0
4.236558000E0,1.310273173E0,-5.926917295E0,-1.995940046E0,6.389752818E0
4.246622000E0,1.337060145E0,-7.815731673E0,-1.093498982E0,8.004319548E0
4.256687000E0,1.370735283E0,-9.873255179E0,5.511317672E0,1.139011438E1
4.266752000E0,1.671208201E0,-1.127179456E1,9.951597344E0,1.512879966E1
4.276816000E0,2.208640409E0,-1.081371433E1,6.314957821E0,1.271586420E1
4.286881000E0,2.634205150E0,-1.005374469E1,1.432126955E0,1.049132054E1
4.296946000E0,2.906057993E0,-9.470082058E0,-1.838384335E0,1.007508234E1
4.307010000E0,3.061943885E0,-9.314104657E0,-2.102853022E0,1.002746412E1
4.317075000E0,3.185044147E0,-9.245943080E0,-1.845494842E0,9.951774759E0
4.327139000E0,3.237803282E0,-9.206219435E0,-1.727866259E0,9.910770313E0
4.337204000E0,3.080090427E0,-9.462958980E0,-1.504667658E0,1.006471929E1
4.347269000E0,3.358869297E0,-9.503765529E0,-1.686300303E0,1.021993987E1
4.357333000E0,3.769148539E0,-9.165965449E0,-1.941234081E0,1.009899961E1
4.367398000E0,3.836310827E0,-9.215729932E0,-2.061184740E0,1.019291133E1
4.377463000E0,3.805729889E0,-9.290860221E0,-2.288820646E0,1.029768729E1
4.387527000E0,3.759885380E0,-9.388834412E0,-2.452992920E0,1.040692673E1
4.397592000E0,3.654042590E0,-9.481658376E0,-2.553988076E0,1.047743900E1
4.407657000E0,3.532669304E0,-9.578428625E0,-2.737435988E0,1.056974944E1
4.417721000E0,3.275326326E0,-9.722593482E0,-3.004499377E0,1.069035093E1
4.427786000E0,3.015537458E0,-9.855804749E0,-3.314642127E0,1.082668951E1
4.437850000E0,2.757787807E0,-9.904852363E0,-3.673183451E0,1.091804793E1
4.447915000E0,2.473606110E0,-9.976824571E0,-4.156547626E0,1.108749944E1
4.457980000E0,2.181504066E0,-1.008134706E1,-4.668568420E0,1.132201615E1
4.468044000E0,1.875905772E0,-1.033928996E1,-5.285147370E0,1.176234339E1
4.478109000E0,1.486020449E0,-1.075671567E1,-6.114027026E0,1.246180225E1
4.488174000E0,8.856157744E-1,-1.125463883E1,-7.213606455E0,1.339728810E1
4.498238000E0,1.771092385E-1,-1.138545975E1,-7.769425818E0,1.378492071E1
4.508303000E0,2.044069648E-2,-1.113081117E1,-7.759039993E0,1.356827464E1
4.518368000E0,1.101381540E-1,-1.071332465E1,-7.312666474E0,1.297160539E1
4.528432000E0,3.740320596E-1,-1.034075878E1,-6.759433919E0,1.235965772E1
4.538497000E0,4.087159887E-1,-1.019541103E1,-6.328675974E0,1.200689779E1
4.548561000E0,3.886911754E-1,-1.008855901E1,-6.190882829E0,1.184302048E1
4.558626000E0,3.699207361E-1,-9.988248861E0,-6.135313815E0,1.172791679E1
4.568691000E0,2.656447081E-1,-9.807445351E0,-6.175991725E0,1.159307661E1
4.578755000E0,5.339969695E-2,-9.669344058E0,-6.396086769E0,1.159348921E1
4.588820000E0,-1.229314233E-1,-9.459403873E0,-6.336486685E0,1.138624158E1
4.598885000E0,-2.991830215E-1,-9.533098671E0,-6.436768772E0,1.150658390E1
4.608949000E0,-5.989175816E-1,-9.599982047E0,-6.575735453E0,1.165155158E1
4.619014000E0,-6.570418288E-1,-9.576569211E0,-6.539609601E0,1.161502800E1
4.629079000E0,-7.241674259E-1,-9.645431870E0,-6.564498274E0,1.168979949E1
4.639143000E0,-8.142908531E-1,-9.596401212E0,-6.582680776E0,1.166557637E1
4.649208000E0,-8.269390384E-1,-9.503367918E0,-6.525475711E0,1.155766686E1
4.659272000E0,-7.211316977E-1,-9.354203108E0,-6.528300501E0,1.142977927E1
4.669337000E0,-3.978772974E-1,-8.959205564E0,-6.379520438E0,1.100563273E1
4.679402000E0,-1.992956212E-1,-8.590186030E0,-5.894676917E0,1.042008785E1
4.689466167E0,-1.004439090E-1,-8.276585822E0,-5.461941444E0,9.916892970E0
4.699531167E0,5.844292045E-3,-8.068992709E0,-5.200194343E0,9.599515545E0
4.709596167E0,7.649817221E-2,-7.880289026E0,-4.994052510E0,9.329810694E0
4.719660167E0,-1.337081634E0,-1.423895829E0,2.511391987E1,2.518976454E1
4.729725167E0,-1.741716120E0,4.641182985E0,4.034909051E1,4.065246929E1
4.739790167E0,-8.146370083E-2,1.140700089E1,3.552392138E1,3.731052527E1
4.749854167E0,-1.604557836E-1,2.694782421E1,6.706620698E1,7.227784650E1
4.759919167E0,5.029693043E0,3.286947258E1,4.855320652E1,5.884822770E1
4.769983167E0,2.048066220E0,1.840096429E1,-9.755682875E0,2.092757536E1
4.780048167E0,-2.645416894E0,1.121619221E1,-1.450717124E1,1.852725603E1
4.790113167E0,-5.495484581E0,8.255883754E0,-1.132054046E1,1.505040211E1
4.800177167E0,-5.265970842E0,8.671062378E0,-3.035662698E0,1.058928797E1
4.810242167E0,-4.228036854E0,9.418719531E0,1.812858579E1,2.086226728E1
4.820307167E0,-4.279557256E0,7.317744196E0,6.280096722E1,6.337054106E1
4.830371167E0,-6.948497205E0,6.111574704E0,1.110468932E1,1.445500203E1
4.840436167E0,-5.499572369E0,4.264473778E0,-2.464665951E1,2.561032717E1
4.850500167E0,-4.062634910E0,5.655850902E0,-1.020583896E1,1.235527420E1
4.860565167E0,-3.335538029E0,8.155368948E0,6.127959187E0,1.073255517E1
4.870630167E0,-3.499733400E0,7.069775475E0,-5.943168461E0,9.876796570E0
4.880694167E0,-2.337318915E0,7.118711407E0,-1.149547687E0,7.580275173E0
4.890759167E0,-1.080471897E0,8.250845793E0,4.047022845E0,9.253230232E0
4.900824167E0,-1.067058677E0,8.321631601E0,-9.045578295E-1,8.438387974E0
4.910888167E0,-3.020560509E-1,8.256436316E0,4.568143660E0,9.440758180E0
4.920953167E0,2.707760784E-1,7.984340229E0,1.084981738E1,1.347373540E1
4.931018167E0,1.010716369E0,6.179442751E0,5.856933140E0,8.573839636E0
4.941082167E0,-3.025173962E-2,4.005421659E0,3.456069902E-1,4.020418141E0
4.951147167E0,-1.680133098E-1,3.988240201E0,3.776008492E0,5.494772835E0
4.961211167E0,1.412759222E0,3.883679121E0,6.380629070E0,7.602057581E0
4.971276167E0,1.268148808E0,3.914951200E0,-4.503598586E-1,4.139790852E0
4.981341167E0,1.815950469E0,3.670900113E0,-1.303559839E0,4.297959051E0
4.991405167E0,2.815406270E0,3.350317159E0,3.303817177E-1,4.388654647E0
5.001470167E0,3.427223248E0,2.957558514E0,-4.155846837E0,6.145248123E0
5.011535167E0,6.027851931E0,2.813046919E0,-2.098685858E0,6.975149762E0
5.021599167E0,8.499670547E0,3.061312094E0,-1.511124008E0,9.159668494E0
5.031664167E0,1.105533414E1,3.589182935E0,-2.043991880E0,1.180171809E1
5.041729167E0,1.462817002E1,3.264316311E0,8.547749278E0,1.725407595E1
5.051793167E0,1.448797367E1,2.760813156E0,2.627487284E0,1.498089315E1
5.061858167E0,1.562737146E1,3.580350131E0,-1.755558818E0,1.612810072E1
5.071922167E0,1.461910566E1,3.441596873E0,1.129186337E1,1.879013086E1
5.081987167E0,1.050798096E1,3.155155227E0,2.473856955E0,1.124689453E1
5.092052167E0,8.371617694E0,3.312055319E0,1.735148381E0,9.168665833E0
5.102116167E0,6.836136525E0,3.997563586E0,-3.754286086E0,8.764013990E0
5.112181167E0,6.129543782E0,5.419041007E0,-5.107737000E0,9.645013721E0
5.122246167E0,5.458155372E0,6.464115030E0,-1.160996097E0,8.539564106E0
5.132310167E0,4.474784676E0,6.921319347E0,-1.358691773E0,8.353107370E0
5.142375167E0,3.637834693E0,7.426290153E0,-2.226413168E0,8.563909288E0
5.152439167E0,3.028406888E0,7.801428798E0,-1.034127451E0,8.432257062E0
5.162504167E0,2.663562850E0,7.748446593E0,1.169536686E0,8.276521474E0
5.172569167E0,2.727884269E0,7.634383203E0,1.162218896E0,8.189988537E0
5.182633167E0,2.880857078E0,6.816972860E0,-2.392756659E-1,7.404573541E0
5.192698167E0,2.407167414E0,5.643199866E0,5.833702737E-1,6.162830565E0
5.202763167E0,1.853544119E0,3.649232086E0,1.688252542E0,4.427495597E0
5.212827167E0,1.489133214E0,1.446773645E0,1.119668269E0,2.358882944E0
5.222892167E0,9.109570223E-1,-8.861969876E-1,-7.934608783E-1,1.498254973E0
5.232957167E0,2.180306849E-1,-3.171060823E0,-1.734086527E0,3.620803807E0
5.243021167E0,-2.153604077E-1,-5.261615835E0,-1.326541004E0,5.430533339E0
5.253086167E0,-5.812708309E-1,-7.186714525E0,4.865146548E-1,7.226578579E0
5.263150167E0,-9.041306173E-1,-8.997359231E0,2.861965894E0,9.484765368E0
5.273215167E0,-1.044310742E0,-1.021378065E1,3.997905064E0,1.101794649E1
5.283280167E0,-1.031173583E0,-1.054392614E1,3.004833838E0,1.101211713E1
5.293344167E0,-7.427232724E-1,-1.029080134E1,1.114154856E0,1.037755131E1
5.303409167E0,-4.420148586E-1,-1.000762419E1,-4.753879881E-1,1.002865459E1
5.313474167E0,-1.947178361E-1,-9.833676546E0,-1.147316682E0,9.902294936E0
5.323538167E0,2.310191050E-2,-9.801691691E0,-1.077550628E0,9.860771221E0
5.333603167E0,2.073480777E-1,-9.784763417E0,-1.050372112E0,9.843163614E0
5.343667167E0,3.753351847E-1,-9.770483347E0,-1.064728269E0,9.835490208E0
5.353732167E0,5.377870616E-1,-9.777339208E0,-1.105020263E0,9.854270480E0
5.363797167E0,6.960312089E-1,-9.771325346E0,-1.179281144E0,9.866811161E0
5.373861167E0,8.449604494E-1,-9.801688183E0,-1.258641821E0,9.918227091E0
5.383926167E0,1.014566322E0,-9.827565036E0,-1.320559157E0,9.967660500E0
5.393991167E0,1.163362465E0,-9.862465897E0,-1.385564846E0,1.002703524E1
5.404055167E0,1.305685009E0,-9.893626878E0,-1.451870809E0,1.008447297E1
5.414120167E0,1.506878052E0,-9.867384574E0,-1.484753211E0,1.009160304E1
5.424184167E0,1.677733840E0,-9.861694064E0,-1.520790625E0,1.011833014E1
5.434249167E0,1.803711370E0,-9.879109411E0,-1.565107403E0,1.016364790E1
5.444314167E0,1.878250067E0,-9.889484711E0,-1.625837608E0,1.019671904E1
5.454378167E0,1.936782450E0,-9.945351348E0,-1.696739045E0,1.027326935E1
5.464443167E0,1.975141062E0,-1.003697137E1,-1.797780247E0,1.038624043E1
5.474508167E0,1.988923388E0,-1.015807422E1,-1.931082292E0,1.052954733E1
5.484572167E0,2.021129559E0,-1.025136889E1,-2.031857884E0,1.064443400E1
5.494637167E0,2.063233020E0,-1.035030495E1,-2.146904629E0,1.077009482E1
5.504701167E0,2.103761241E0,-1.048774375E1,-2.275601992E0,1.093603880E1
5.514766167E0,2.160048586E0,-1.062485394E1,-2.394763423E0,1.110352300E1
5.524831167E0,2.212215689E0,-1.078997580E1,-2.492058168E0,1.129282206E1
5.534895167E0,2.320302933E0,-1.078051384E1,-2.607586285E0,1.133149551E1
5.544960167E0,2.418087966E0,-1.052786384E1,-2.644971628E0,1.112110342E1
5.555025167E0,2.310712037E0,-1.043294248E1,-2.683443968E0,1.101755646E1
5.565089167E0,2.031628819E0,-1.045220437E1,-2.792417649E0,1.100789209E1
5.575154167E0,1.788598072E0,-1.048764552E1,-2.952240179E0,1.104108299E1
5.585218167E0,1.640129372E0,-1.055630352E1,-3.194871855E0,1.115046073E1
5.595283167E0,1.496760322E0,-1.055922596E1,-3.517227100E0,1.122980101E1
5.605348167E0,1.202774306E0,-1.049389970E1,-3.919873678E0,1.126649930E1
5.615412167E0,7.491594489E-1,-1.045775689E1,-4.393023352E0,1.136769868E1
5.625477167E0,2.360194977E-1,-1.040686272E1,-4.960491246E0,1.153104377E1
5.635542167E0,-3.801989718E-1,-1.036437802E1,-5.699338399E0,1.183415993E1
5.645606167E0,-1.001660566E0,-1.020423799E1,-6.314887655E0,1.204191027E1
5.655671167E0,-1.608197728E0,-1.007534197E1,-6.803357034E0,1.226313511E1
5.665736167E0,-2.098438082E0,-9.969077010E0,-7.012767461E0,1.236789579E1
5.675800167E0,-2.222598006E0,-9.506486238E0,-6.686520894E0,1.183312233E1
5.685864375E0,-2.109484788E0,-8.814389913E0,-5.969842290E0,1.085276060E1
5.695928375E0,-2.052537439E0,-8.133070006E0,-5.383468886E0,9.967019360E0
5.705993375E0,-1.999431126E0,-7.889210708E0,-4.914830924E0,9.507519836E0
5.716058375E0,-2.065936188E0,-7.922604741E0,-4.350265880E0,9.271492407E0
5.726122375E0,-2.235304005E0,-7.949470943E0,-4.175279473E0,9.253303786E0
5.736187375E0,-2.416908875E0,-8.074855127E0,-4.536006778E0,9.571838451E0
5.746252375E0,-1.682282827E0,-8.713807864E0,-6.490195951E0,1.099468810E1
5.756316375E0,2.530436076E0,4.568640089E0,5.899718036E1,5.922788928E1
5.766381375E0,5.158994862E0,9.729797251E0,6.946782217E1,7.033535739E1
5.776445375E0,7.318982052E0,1.569486704E1,4.994061047E1,5.285793151E1
5.786510375E0,2.663692659E0,1.110049453E1,-1.382392994E1,1.792811413E1
5.796575375E0,1.503643957E0,1.560161565E1,-2.122431927E1,2.638452358E1
5.806639375E0,6.472537944E0,2.676951220E1,-2.046358950E1,3.431120846E1
5.816704375E0,1.109428595E1,3.678142357E1,-1.720005145E1,4.209273180E1
5.826769375E0,1.374540067E1,4.545132411E1,-9.176755900E0,4.836291711E1
5.836833375E0,1.021877651E1,4.282616753E1,2.462752274E1,5.044818029E1
5.846898375E0,4.521199290E0,3.674571112E1,2.859435804E1,4.677954511E1
5.856962375E0,8.987224837E0,2.945555935E1,-3.329344015E1,4.535254507E1
5.867027375E0,9.904909666E0,1.642513282E1,-2.675350252E1,3.291871992E1
5.877092375E0,1.115604542E1,8.585055099E0,-1.612224237E1,2.140297221E1
5.887156375E0,1.176333022E1,3.301463673E0,-5.965566806E0,1.359645496E1
5.897221375E0,1.180446187E1,-4.645199438E0,5.095015330E1,5.250563131E1
5.907286375E0,6.238435310E0,-5.897126316E0,1.131876407E1,1.420593517E1
5.917350375E0,6.030029435E0,-4.680888503E0,-3.101919603E1,3.194467866E1
5.927415375E0,8.132549019E0,-8.328182822E0,5.379657086E0,1.282332613E1
5.937479375E0,1.111771341E1,-4.752233890E0,1.826074689E1,2.190073413E1
5.947544375E0,1.097167686E1,1.592114961E-1,-2.240240692E1,2.494535783E1
5.957609375E0,1.164419437E1,4.239825425E0,-1.866246610E0,1.253180987E1
5.967673375E0,1.140550869E1,8.039913336E0,1.261541104E1,1.881155045E1
5.977738375E0,8.805354795E0,8.959462842E0,-4.912463386E0,1.348845966E1
5.987803375E0,7.376004683E0,1.114237930E1,-1.019415856E0,1.340139061E1
5.997867375E0,6.545891849E0,1.296628491E1,3.162970031E0,1.486531614E1
6.007932375E0,5.793573296E0,1.250304627E1,-3.046202304E0,1.411279582E1
6.017996375E0,5.059441922E0,1.281620559E1,-1.915149799E0,1.391117814E1
6.028061375E0,4.450652925E0,1.265184504E1,-6.543275513E-2,1.341200119E1
6.038126375E0,4.435676159E0,1.178745115E1,-1.321379667E0,1.266354105E1
6.048190375E0,4.274379254E0,1.064708622E1,-1.087604769E0,1.152448034E1
6.058255375E0,3.796586306E0,8.525927469E0,-5.890411958E-2,9.333218977E0
6.068320375E0,3.137711229E0,5.969041806E0,1.531257141E-1,6.745230857E0
6.078384375E0,2.434209617E0,3.492085242E0,4.183431369E-1,4.277270949E0
6.088449375E0,1.688575893E0,1.068250047E0,4.987948309E-1,2.059427831E0
6.098513375E0,8.714877319E-1,-1.134796039E0,5.292972699E-2,1.431801129E0
6.108578375E0,4.015668905E-1,-2.875858878E0,-7.037732148E-1,2.987828140E0
6.118643375E0,1.469203565E-1,-4.419947149E0,-1.468058095E0,4.659690222E0
6.128707375E0,-2.147625299E-1,-5.967376519E0,-1.608267310E0,6.184030175E0
6.138772375E0,-7.077529760E-1,-7.427079527E0,-8.393656142E-1,7.507793232E0
6.148837375E0,-1.278270339E0,-8.814365355E0,9.027660964E-1,8.952206337E0
6.158901375E0,-1.775550448E0,-9.969154193E0,2.878136369E0,1.052712134E1
6.168966375E0,-1.737460370E0,-1.031990761E1,2.298414173E0,1.071456809E1
6.179030375E0,-1.318363235E0,-1.010433012E1,4.151749693E-1,1.019842827E1
6.189095375E0,-1.011548281E0,-9.885894520E0,-8.730758357E-1,9.975790786E0
6.199160375E0,-8.035145809E-1,-9.788736600E0,-1.309682166E0,9.908595626E0
6.209224375E0,-6.045496562E-1,-9.785868541E0,-1.146872366E0,9.871373745E0
6.219289375E0,-3.990351923E-1,-9.765971051E0,-1.053603941E0,9.830742643E0
6.229354375E0,-2.075058429E-1,-9.748821167E0,-9.785588752E-1,9.800007668E0
6.239418375E0,-3.552111332E-2,-9.740160856E0,-9.503800466E-1,9.786481364E0
6.249483375E0,1.357635766E-1,-9.729986701E0,-9.369771320E-1,9.775939806E0
6.259547375E0,2.975209504E-1,-9.728029053E0,-9.442504835E-1,9.778275766E0
6.269612375E0,4.525530395E-1,-9.726514040E0,-9.743280492E-1,9.785662715E0
6.279677375E0,5.985494263E-1,-9.734599569E0,-1.007569470E0,9.804890944E0
6.289741375E0,7.226914425E-1,-9.762609487E0,-1.020611612E0,9.842381570E0
6.299806375E0,8.485096362E-1,-9.804013036E0,-1.087281564E0,9.900546521E0
6.309871375E0,9.739552892E-1,-9.869636922E0,-1.163472027E0,9.985589068E0
6.319935375E0,1.085742870E0,-9.938023617E0,-1.266747962E0,1.007709290E1
6.330000375E0,1.230049959E0,-9.996287613E0,-1.346344793E0,1.016127124E1
6.340064375E0,1.370469235E0,-1.007496307E1,-1.400498781E0,1.026374511E1
6.350129375E0,1.542753059E0,-1.016266195E1,-1.460389325E0,1.038231775E1
6.360194375E0,1.690454896E0,-1.022211176E1,-1.551884948E0,1.047652392E1
6.370258375E0,1.824544999E0,-1.029212281E1,-1.605814403E0,1.057522559E1
6.380323375E0,1.971281168E0,-1.045270022E1,-1.630991929E0,1.076127436E1
6.390388375E0,2.221574597E0,-1.076024388E1,-1.620790730E0,1.110608863E1
6.400452375E0,2.545433014E0,-1.079271464E1,-1.703738308E0,1.121894125E1
6.410517375E0,2.807454641E0,-1.043851721E1,-1.775024491E0,1.095423001E1
6.420581375E0,2.675472459E0,-1.031419605E1,-1.987257808E0,1.083927980E1
6.430646375E0,2.321053130E0,-1.024984627E1,-2.293752627E0,1.075676240E1
6.440711375E0,1.995181370E0,-1.027240717E1,-2.629209874E0,1.078961734E1
6.450775375E0,1.741978075E0,-1.042029729E1,-2.999911067E0,1.098255660E1
6.460840375E0,1.476968959E0,-1.056136955E1,-3.411147790E0,1.119642324E1
6.470904375E0,1.286105754E0,-1.058929819E1,-4.026821884E0,1.140186821E1
6.480969375E0,1.150891523E0,-1.055769750E1,-5.003918517E0,1.174004805E1
6.491034375E0,6.671462560E-1,-1.069335992E1,-6.233164045E0,1.239537674E1
6.501098375E0,-1.743091531E-1,-1.090519519E1,-7.670867490E0,1.333401192E1
6.511163375E0,-1.048698712E0,-1.090277210E1,-8.886559757E0,1.410465004E1
6.521228375E0,-1.622589772E0,-1.041471553E1,-9.149220192E0,1.395733955E1
6.531292375E0,-1.787044466E0,-9.477283489E0,-8.474204754E0,1.283840241E1
6.541357375E0,-1.721304221E0,-8.554150810E0,-7.588379649E0,1.156373166E1
6.551421375E0,-1.669033621E0,-7.944729436E0,-6.725579710E0,1.054219244E1
6.561486375E0,-1.561242686E0,-7.592558654E0,-5.993030008E0,9.798001547E0
6.571551375E0,-1.573524031E0,-7.612356741E0,-5.541798037E0,9.546490377E0
6.581615375E0,-1.642817338E0,-8.123525596E0,-5.079061085E0,9.720461842E0
6.591680375E0,-1.807909671E0,-8.258196328E0,-7.394795880E0,1.123162277E1
6.601745375E0,-2.905874391E0,-5.351653016E0,-1.709077751E1,1.814329000E1
6.611809375E0,-1.983840403E0,3.334298712E-1,1.188916230E1,1.205814987E1
6.621874375E0,-1.086634716E0,1.753014198E1,5.992515687E1,6.244606536E1
6.631938375E0,-8.369088188E0,-4.100561705E0,-1.261092856E1,1.568093628E1
6.642003375E0,-6.111888700E0,-6.410669140E0,-8.975132795E0,1.260971336E1
6.652068375E0,-3.398124579E0,-1.893240720E0,-7.563886832E0,8.505527326E0
6.662132375E0,2.450899617E0,7.195726839E0,-1.353715091E1,1.552545808E1
6.672197375E0,8.656175367E0,2.409856958E1,-2.417060961E1,3.521205471E1
6.682261375E0,1.642464400E1,4.225770122E1,-3.010024294E1,5.441972866E1
6.692327000E0,2.042525983E1,5.978031432E1,-2.834565958E1,6.924127120E1
6.702392000E0,2.125194853E1,6.926566288E1,-2.196717060E1,7.570953674E1
6.712456000E0,1.850496170E1,6.837223171E1,-1.357593082E1,7.212143630E1
6.722521000E0,7.120465572E0,6.156664806E1,2.843491148E1,6.818868949E1
6.732586000E0,1.573259445E0,3.852573922E1,7.873419718E0,3.935350640E1
6.742650000E0,-7.805236944E-1,2.394382886E1,-1.215457209E1,2.686353999E1
6.752715000E0,-6.274375221E-1,1.496411828E1,-5.956452166E0,1.611824545E1
6.762779000E0,2.050058658E0,3.206982608E0,-1.291461073E1,1.346382740E1
6.772844000E0,2.862162361E0,3.912362638E0,-4.150971136E0,6.381936709E0
6.782909000E0,3.024442475E0,1.987090285E0,3.074879973E0,4.748754251E0
6.792973000E0,5.392092944E0,-1.892683480E0,3.334425947E1,3.383040876E1
6.803038000E0,4.717307886E0,2.050430834E0,-1.527347692E0,5.365636147E0
6.813102000E0,5.478118351E0,3.627778067E0,-6.065123838E0,8.941827640E0
6.823167000E0,6.319192960E0,4.376267279E0,-1.982953380E0,7.938262975E0
6.833232000E0,7.218579512E0,5.607760477E0,2.022662991E0,9.361946022E0
6.843296000E0,7.846897332E0,5.556734165E0,4.861210202E0,1.077415690E1
6.853361000E0,7.327446481E0,3.737030368E0,2.651194235E0,8.642088797E0
6.863426000E0,6.287138523E0,1.812155042E0,4.338914680E-1,6.557459761E0
6.873490000E0,5.478998356E0,3.030144095E-2,-3.061923712E-1,5.487631086E0
6.883555000E0,4.837662587E0,-1.746314224E0,-7.443768650E-1,5.196796090E0
6.893619000E0,4.462562242E0,-3.376354226E0,-1.052354976E0,5.694003918E0
6.903684000E0,4.257626981E0,-5.067350866E0,-8.869752520E-1,6.677735949E0
6.913749000E0,4.209095968E0,-6.548538884E0,-7.414503336E-1,7.819820905E0
6.923813000E0,4.171367394E0,-7.597039375E0,-1.175613112E0,8.746278031E0
6.933878000E0,4.135275163E0,-8.314151258E0,-1.695801297E0,9.439351347E0
6.943943000E0,4.162367652E0,-8.843400289E0,-2.018166629E0,9.980181846E0
6.954007000E0,4.256047356E0,-9.113829335E0,-2.077987299E0,1.027102018E1
6.964072000E0,4.222053398E0,-9.197888322E0,-2.156826770E0,1.034788801E1
6.974136000E0,4.340235274E0,-9.269443624E0,-2.128992269E0,1.045432138E1
6.984201000E0,4.613294983E0,-9.339306741E0,-2.061129630E0,1.061854022E1
6.994266000E0,4.796675360E0,-9.383090692E0,-2.110267877E0,1.074726551E1
7.004330000E0,4.836387894E0,-9.474596694E0,-2.143030995E0,1.085132306E1
7.014395000E0,4.873555428E0,-9.542579346E0,-2.094260978E0,1.091779704E1
7.024459000E0,4.855657394E0,-9.554876041E0,-1.994046864E0,1.090180204E1
7.034524000E0,4.769036741E0,-9.566674553E0,-1.886929382E0,1.085474440E1
7.044589000E0,4.619310013E0,-9.546753089E0,-1.754424897E0,1.074972215E1
7.054653000E0,4.498099572E0,-9.514313906E0,-1.664397072E0,1.065482456E1
7.064718000E0,4.443466112E0,-9.530142319E0,-1.589264151E0,1.063455520E1
7.074783000E0,4.446869777E0,-9.576734687E0,-1.583838812E0,1.067693980E1
7.084847000E0,4.549123253E0,-9.636009666E0,-1.702472386E0,1.079099703E1
7.094912000E0,4.826525688E0,-9.667892779E0,-1.882269589E0,1.096842923E1
7.104976000E0,5.178406448E0,-9.672495123E0,-2.055308142E0,1.116231816E1
7.115041000E0,5.365299833E0,-9.681153679E0,-2.218557580E0,1.128863041E1
7.125106000E0,5.307767909E0,-9.744410028E0,-2.297530074E0,1.133157409E1
7.135170000E0,4.924939005E0,-9.849823047E0,-2.299994237E0,1.125006719E1
7.145235000E0,4.292600932E0,-9.959798648E0,-2.277656119E0,1.108204536E1
7.155299000E0,3.762077501E0,-1.007493500E1,-2.212718842E0,1.097969340E1
7.165364000E0,3.377429529E0,-1.022237371E1,-2.123779476E0,1.097334925E1
7.175429000E0,3.052259727E0,-1.034255271E1,-2.045268912E0,1.097578293E1
7.185493000E0,2.772317846E0,-1.057092039E1,-2.128351414E0,1.113373181E1
7.195558000E0,2.502987199E0,-1.083748443E1,-2.285707004E0,1.135519573E1
7.205623000E0,2.216013310E0,-1.084928645E1,-2.410309708E0,1.133257801E1
7.215687000E0,1.943345803E0,-1.073508097E1,-2.499877357E0,1.119231626E1
7.225752000E0,1.669049116E0,-1.063805344E1,-2.676667045E0,1.109587547E1
7.235816000E0,1.399608834E0,-1.050583971E1,-2.793609020E0,1.096064890E1
7.245881000E0,1.153005730E0,-1.033210958E1,-2.828501109E0,1.077415097E1
7.255946000E0,8.260042879E-1,-1.011084392E1,-2.762783083E0,1.051401057E1
7.266010000E0,3.957964195E-1,-9.713365406E0,-2.702873096E0,1.009017568E1
7.276075000E0,-7.576763570E-2,-9.322928106E0,-2.733383868E0,9.715663465E0
7.286139000E0,-4.826314458E-1,-9.001234181E0,-2.663321945E0,9.399384750E0
7.296204000E0,-8.606722833E-1,-8.830269781E0,-2.678024184E0,9.267482653E0
7.306269000E0,-1.195547440E0,-8.648835942E0,-2.724953352E0,9.146423761E0
7.316333000E0,-1.637008421E0,-8.451157368E0,-2.835046483E0,9.063075968E0
7.326398000E0,-2.061239997E0,-8.109242603E0,-3.206804852E0,8.960587217E0
7.336462000E0,-2.263086173E0,-7.727092561E0,-3.659085814E0,8.844118241E0
7.346527000E0,-2.570038098E0,-7.810606588E0,-3.765183542E0,9.043631914E0
7.356592000E0,-2.831413900E0,-7.926232939E0,-3.196551175E0,9.003333421E0
7.366656000E0,-2.378836192E0,-4.638212600E0,-1.391371277E-1,5.214521732E0
7.376721000E0,-6.507366300E-3,6.459772888E0,2.934163220E0,7.094929310E0
7.386786000E0,2.112098201E0,1.839728172E1,-3.764861360E0,1.889696046E1
7.396850000E0,6.355233443E0,4.380376585E1,-7.479918476E0,4.488995517E1
7.406915000E0,1.296448748E1,6.731107902E1,-7.462082714E0,6.895318682E1
7.416979000E0,1.723258302E1,6.895654163E1,-9.002829301E0,7.164507999E1
7.427044000E0,1.478480757E1,6.835346449E1,5.801507383E0,7.017438372E1
7.437109000E0,4.744479897E0,5.693192508E1,1.937980691E1,6.032686879E1
7.447173000E0,6.546551415E-1,3.213296665E1,-1.102414159E1,3.397775474E1
7.457238000E0,7.739101280E-1,1.712895282E1,-6.766730075E0,1.843335556E1
7.467302000E0,2.882002548E0,2.039222306E0,-8.540093518E0,9.241080218E0
7.477367000E0,3.441528461E0,1.802255706E0,-5.834535381E0,7.009568238E0
7.487432000E0,4.697593414E0,-5.312698281E0,2.778140327E1,2.867226037E1
7.497496000E0,6.929155785E0,-1.516027483E1,4.092097627E1,4.418566998E1
7.507561000E0,6.447756275E0,-9.478389782E0,-9.298527675E0,1.476062501E1
7.517625000E0,4.989752467E0,-8.078107933E0,-4.335902487E0,1.043807970E1
7.527690000E0,3.715314978E0,-7.058731254E0,-1.347638343E0,8.089831976E0
7.537755000E0,3.462677548E0,-6.714223832E0,4.150727892E-1,7.565925118E0
7.547819000E0,3.859123154E0,-6.704954826E0,1.166231693E0,7.823640272E0
7.557884000E0,4.274094202E0,-6.441155353E0,1.362924134E0,7.849453849E0
7.567948000E0,4.436159432E0,-5.878266122E0,1.769366287E0,7.573914454E0
7.578013000E0,4.480667852E0,-5.171999654E0,3.090330656E0,7.508402519E0
7.588078000E0,4.766275101E0,-4.319320076E0,5.429168969E0,8.417231134E0
7.598142000E0,4.923712260E0,-3.988941867E0,4.292316465E0,7.653664499E0
7.608207000E0,4.945869699E0,-3.866001234E0,7.249921757E-1,6.319272606E0
7.618272000E0,4.897966969E0,-3.609465172E0,-6.828916383E-1,6.122471743E0
7.628336000E0,4.800415824E0,-3.395169981E0,-1.164929153E0,5.994016284E0
7.638401000E0,4.658993019E0,-3.234198473E0,-1.373823198E0,5.835550180E0
7.648465000E0,4.452087247E0,-3.129555532E0,-1.507980106E0,5.647052566E0
7.658530000E0,4.229301606E0,-3.051077712E0,-1.715317111E0,5.489843356E0
7.668595000E0,4.013113964E0,-2.989987757E0,-1.993583180E0,5.386973582E0
7.678659000E0,3.827197942E0,-2.900154644E0,-2.349447794E0,5.345862511E0
7.688723417E0,3.668319152E0,-2.818828061E0,-2.684805200E0,5.348881752E0
7.698787417E0,3.456165796E0,-2.783114437E0,-2.880075890E0,5.290146039E0
7.708852417E0,3.282951680E0,-2.770179811E0,-3.037953052E0,5.261257137E0
7.718917417E0,3.079009861E0,-2.763169584E0,-3.130768537E0,5.188171114E0
7.728981417E0,2.819593461E0,-2.766760944E0,-3.179298381E0,5.070799898E0
7.739046417E0,2.625347203E0,-2.683190199E0,-3.209230278E0,4.938736332E0
7.749110417E0,2.474677904E0,-2.484111217E0,-3.265035811E0,4.791168763E0
7.759175417E0,2.273669634E0,-2.193975885E0,-3.269671192E0,4.546850942E0
7.769240417E0,2.148226246E0,-1.730139656E0,-3.304579946E0,4.304475329E0
7.779304417E0,2.010897370E0,-1.201874712E0,-3.315564233E0,4.059701620E0
7.789369417E0,1.848256774E0,-5.635552293E-1,-3.294939642E0,3.819721828E0
7.799433417E0,1.697093386E0,1.758649510E-1,-3.342992645E0,3.753219187E0
7.809498417E0,1.506787420E0,9.642152166E-1,-3.408392290E0,3.849319072E0
7.819563417E0,1.377631782E0,1.746283818E0,-3.465810193E0,4.118156966E0
7.829627417E0,1.299262720E0,2.468192173E0,-3.503583791E0,4.478298293E0
7.839692417E0,1.225952596E0,3.157516333E0,-3.465289207E0,4.845729919E0
7.849757417E0,1.030224726E0,3.659246612E0,-3.569182242E0,5.214452093E0
7.859821417E0,6.902667314E-1,3.938271065E0,-3.523798493E0,5.329503069E0
7.869886417E0,3.127663227E-1,3.895012195E0,-3.395481930E0,5.176701682E0
7.879950417E0,-1.397698878E-1,3.545372087E0,-3.159687404E0,4.751086544E0
7.890015417E0,-4.881563336E-1,3.069233317E0,-2.948421655E0,4.283886088E0
7.900080417E0,-8.223763829E-1,2.481597499E0,-2.738318333E0,3.785897035E0
7.910144417E0,-1.085085643E0,1.836568921E0,-2.557073359E0,3.330018081E0
7.920209417E0,-1.544768156E0,1.239301570E0,-2.621148610E0,3.285208832E0
7.930273417E0,-1.990007169E0,8.207105112E-1,-2.428973728E0,3.245551979E0
7.940338417E0,-1.922678820E0,4.587941748E-1,-1.812497104E0,2.681852287E0
7.950403417E0,-1.906177246E0,-7.558110952E-3,-1.543546818E0,2.452775081E0
7.960467417E0,-2.059524423E0,-1.731038958E-1,-1.324468605E0,2.454755160E0
7.970532417E0,-3.601377304E0,-2.828111100E-1,2.433598875E0,4.355720847E0
7.980596417E0,-6.797799255E0,-7.337577367E-1,7.365762116E0,1.005002123E1
7.990661417E0,-6.208224501E0,-3.768606502E-1,3.858895698E0,7.319504861E0
8.000726417E0,-4.088172917E0,2.963316268E-1,4.006506318E-1,4.118433095E0
8.010790417E0,-3.061810277E0,7.560888380E-1,-1.439776867E0,3.466887643E0
8.020855417E0,-2.961895394E0,9.057284421E-1,-1.584262151E0,3.478944509E0
8.030919417E0,-2.984479972E0,1.025267165E0,-1.632742000E0,3.553046567E0
8.040984417E0,-2.913303570E0,9.756646496E-1,-1.801388564E0,3.561496871E0
8.051049417E0,-2.868967350E0,7.646509159E-1,-1.905841616E0,3.528157727E0
8.061113417E0,-2.895921845E0,4.053722584E-1,-1.999444283E0,3.542381605E0
8.071178417E0,-2.981497308E0,-6.920004308E-2,-2.038424746E0,3.612380141E0
8.081243417E0,-3.021262175E0,-5.983759832E-1,-2.144106006E0,3.752768246E0
8.091307417E0,-3.112617610E0,-1.175273389E0,-2.096173017E0,3.932378065E0
8.101372417E0,-3.099092124E0,-1.654091354E0,-2.012711615E0,4.048629181E0
8.111436417E0,-3.048514000E0,-2.102079874E0,-1.890289046E0,4.157567809E0
8.121501417E0,-2.873722306E0,-2.326963788E0,-1.123346752E0,3.864576081E0
8.131566417E0,-2.454999977E0,-2.243029346E0,6.016649690E-1,3.379379569E0
8.141630417E0,-1.784643015E0,-1.677930452E0,2.026226869E0,3.178993020E0
8.151695417E0,-1.260196303E0,-8.937603611E-1,2.982213299E0,3.358645332E0
8.161759417E0,-9.245076522E-1,-1.183032060E-1,3.482335010E0,3.604908760E0
8.171824417E0,-7.129898885E-1,4.437294084E-1,3.501778171E0,3.601069387E0
8.181889417E0,-6.329447222E-1,5.941420144E-1,3.148706918E0,3.266187228E0
8.191953417E0,-6.592490065E-1,2.821948135E-1,2.530974312E0,2.630603378E0
8.202018417E0,-7.891884640E-1,-3.341134107E-1,1.550620780E0,1.771687051E0
8.212082417E0,-9.008942565E-1,-8.090342063E-1,4.044881594E-1,1.276619552E0
8.222147417E0,-9.508797643E-1,-9.366818476E-1,-5.442349324E-1,1.441435698E0
8.232212417E0,-8.957718033E-1,-7.562303406E-1,-1.179087528E0,1.662690245E0
8.242276417E0,-6.917405221E-1,-3.738569355E-1,-1.511988811E0,1.704225373E0
8.252341417E0,-4.554247168E-1,8.512025714E-2,-1.504162897E0,1.573900617E0
8.262405417E0,-1.962384045E-1,6.203392947E-1,-1.336857685E0,1.486781364E0
8.272470417E0,4.179324796E-2,1.079935123E0,-1.163011705E0,1.587640630E0
8.282535417E0,2.501231463E-1,1.457613798E0,-1.039888785E0,1.807918211E0
8.292599417E0,3.773225802E-1,1.701579516E0,-9.833426285E-1,2.001176630E0
8.302664417E0,5.101996788E-1,1.808049712E0,-8.875143653E-1,2.077746188E0
8.312728417E0,6.904941881E-1,1.776820318E0,-6.366911063E-1,2.009788106E0
8.322793417E0,9.774878114E-1,1.591394584E0,-1.739453101E-1,1.875706831E0
8.332858417E0,1.333412506E0,1.237894730E0,4.808405898E-1,1.881908591E0
8.342922417E0,1.661177887E0,7.210493982E-1,1.188575805E0,2.166134033E0
8.352987417E0,1.854022568E0,1.637565368E-1,1.568632543E0,2.434096124E0
8.363051417E0,1.804658034E0,-3.631617934E-1,1.463692564E0,2.351823341E0
8.373116417E0,1.471421413E0,-7.715085304E-1,8.582081205E-1,1.869980633E0
8.383181417E0,1.131691752E0,-9.934746838E-1,6.755989909E-2,1.507409204E0
8.393245417E0,8.472863987E-1,-9.492410821E-1,-6.691050001E-1,1.437586302E0
8.403310417E0,6.910068427E-1,-6.968460184E-1,-1.257424430E0,1.595055180E0
8.413374417E0,5.845695376E-1,-3.911056370E-1,-1.613508754E0,1.760140807E0
8.423439417E0,5.256883684E-1,-7.233122706E-2,-1.829479172E0,1.904881652E0
8.433504417E0,4.662648699E-1,1.066578913E-1,-1.839304833E0,1.900479178E0
8.443568417E0,3.770623791E-1,2.003390568E-1,-1.659015879E0,1.713080693E0
8.453633417E0,3.166925088E-1,2.331670797E-1,-1.277180418E0,1.336357307E0
8.463698417E0,2.914717135E-1,2.177608359E-1,-7.221211928E-1,8.086003701E-1
8.473762417E0,2.896435998E-1,2.609308290E-1,-3.287195005E-2,3.912273988E-1
8.483827417E0,2.843980626E-1,3.881030917E-1,7.229895043E-1,8.684584568E-1
8.493891417E0,2.447781699E-1,4.946990025E-1,1.398718888E0,1.503681477E0
8.503956417E0,1.466069274E-1,4.514319456E-1,1.789031058E0,1.850923153E0
8.514021417E0,4.519166797E-2,3.032576537E-1,1.743746127E0,1.770496554E0
8.524085417E0,6.331383381E-3,1.304502118E-1,1.363518065E0,1.369758686E0
8.534150417E0,1.808401275E-2,-2.674925745E-2,8.616398513E-1,8.622446217E-1
8.544214417E0,9.250295162E-3,-1.492718142E-1,3.964809823E-1,4.237508841E-1
8.554279417E0,-3.704006463E-2,-1.985170645E-1,9.487926006E-2,2.231211896E-1
8.564344417E0,-1.148662126E-1,-1.236919999E-1,-7.254055738E-2,1.837283051E-1
8.574408417E0,-1.420040541E-1,-1.322055459E-2,-1.614374580E-1,2.154112051E-1
8.584473417E0,-9.195214391E-2,7.172077775E-2,-2.388564205E-1,2.658034167E-1
8.594537417E0,6.417671839E-2,7.699321210E-2,-3.546991547E-1,3.685893328E-1
8.604602417E0,2.784286219E-1,6.724298000E-3,-4.803511047E-1,5.552521026E-1
8.614667417E0,5.331789440E-1,-5.615548968E-2,-5.528133094E-1,7.700881641E-1
8.624731417E0,7.821902239E-1,-8.253111005E-2,-5.212611490E-1,9.435815365E-1
8.634796417E0,9.659723049E-1,-4.804072380E-2,-3.673396655E-1,1.034576645E0
8.644860417E0,1.108034795E0,1.386842608E-2,-1.275172118E-1,1.115434480E0
8.654925417E0,1.153079113E0,7.361527562E-2,9.824199378E-2,1.159595679E0
8.664990417E0,1.101189752E0,1.171653378E-1,2.221287060E-1,1.129463478E0
8.675054417E0,9.655401957E-1,1.282013726E-1,2.233455116E-1,9.992930896E-1
8.685119417E0,7.813034937E-1,1.063514972E-1,1.222032623E-1,7.979219432E-1
8.695186875E0,5.950401833E-1,1.013492042E-1,-7.123608012E-2,6.077985357E-1
8.705251875E0,4.339268437E-1,1.200193638E-1,-2.891839904E-1,5.350930140E-1
8.715316875E0,3.099480379E-1,1.355443060E-1,-4.853270853E-1,5.915931243E-1
8.725380875E0,2.261577482E-1,9.596859634E-2,-6.633134061E-1,7.073485515E-1
8.735445875E0,1.879593319E-1,1.578280449E-2,-7.309867412E-1,7.549300783E-1
8.745509875E0,1.984854895E-1,-8.663468599E-2,-6.632064021E-1,6.976709755E-1
8.755574875E0,2.119741024E-1,-2.358842808E-1,-4.800206640E-1,5.753209990E-1
8.765639875E0,2.406994263E-1,-3.559369737E-1,-1.931866696E-1,4.711140333E-1
8.775703875E0,2.624789159E-1,-3.084523201E-1,9.628485762E-2,4.163037219E-1
8.785768875E0,3.123392932E-1,-5.280795872E-2,2.409075872E-1,3.979710796E-1
8.795832875E0,3.552171814E-1,2.299388319E-1,2.288073957E-1,4.810446307E-1
8.805897875E0,3.530694991E-1,3.238562250E-1,1.509125429E-1,5.023101844E-1
8.815962875E0,3.091864380E-1,2.246652281E-1,4.793664336E-2,3.851865002E-1
8.826026875E0,2.284957391E-1,6.409659326E-2,-6.885739625E-2,2.471032518E-1
8.836091875E0,1.341014873E-1,-8.487233520E-3,-1.496506407E-1,2.011232366E-1
8.846155875E0,2.875044873E-2,1.252473593E-2,-2.035222080E-1,2.059241279E-1
8.856220875E0,-5.987314939E-2,3.945233345E-2,-2.312766749E-1,2.421366989E-1
8.866285875E0,-1.086216787E-1,-1.395964265E-2,-1.770373178E-1,2.081724107E-1
8.876349875E0,-1.231052318E-1,-1.130196619E-1,-1.137330222E-1,2.021473285E-1
8.886414875E0,-1.206657917E-1,-1.823921978E-1,-1.164747085E-1,2.477771274E-1
8.896478875E0,-4.042236825E-2,-1.786371160E-1,-1.813660480E-1,2.577573092E-1
8.906543875E0,4.059254050E-2,-1.503225589E-1,-2.729959738E-1,3.142792194E-1
8.916608875E0,1.025034446E-1,-1.822372466E-1,-3.451120234E-1,4.035092054E-1
8.926672875E0,9.557363519E-2,-3.112689239E-1,-4.495901092E-1,5.551161401E-1
8.936737875E0,6.377322396E-2,-5.929345644E-1,-4.773192503E-1,7.638534470E-1
8.946801875E0,-1.408594251E-2,-9.089613676E-1,-4.034578800E-1,9.945790278E-1
8.956866875E0,-1.205824506E-1,-9.838788182E-1,-2.238232291E-1,1.016196090E0
8.966931875E0,-2.413359323E-1,-7.784544379E-1,1.129869175E-1,8.228003327E-1
8.976995875E0,-2.565585735E-1,-3.712081468E-1,5.438138598E-1,7.066479350E-1
8.987060875E0,-1.268266831E-1,7.339717448E-2,8.680419677E-1,8.803232421E-1
8.997124875E0,1.025049064E-1,3.368697882E-1,9.904926038E-1,1.051220295E0
9.007189875E0,4.339250895E-1,3.353729010E-1,8.748434490E-1,1.032529431E0
9.017254875E0,7.466666347E-1,1.359489334E-1,6.695728505E-1,1.012087436E0
9.027318875E0,9.151833898E-1,-1.112105334E-1,5.049566998E-1,1.051146844E0
9.037383875E0,9.257028231E-1,-3.306378257E-1,5.097198417E-1,1.107276571E0
9.047447875E0,8.907502145E-1,-5.805975240E-1,7.942741529E-1,1.327177780E0
9.057512875E0,8.888101083E-1,-8.345988178E-1,1.160445947E0,1.683203312E0
9.067577875E0,8.205769023E-1,-1.214848514E0,1.288985361E0,1.952098007E0
9.077641875E0,6.738161749E-1,-1.698389860E0,1.298346169E0,2.241485920E0
9.087706875E0,5.867707220E-1,-2.329565799E0,1.431781238E0,2.796636231E0
9.097770875E0,5.707901354E-1,-3.100876109E0,1.508334886E0,3.495183565E0
9.107835875E0,5.127492110E-1,-3.807210989E0,1.495772143E0,4.122511561E0
9.117900875E0,1.682267332E-1,-4.100414355E0,1.393352314E0,4.333950714E0
9.127964875E0,-3.663364660E-1,-4.279760154E0,3.401733188E-1,4.308859161E0
9.138029875E0,-8.876851040E-1,-4.597459846E0,-1.306098992E0,4.861122962E0
9.148093875E0,-1.056970695E0,-5.023271046E0,-1.965977598E0,5.496863375E0
9.158158875E0,-8.530941457E-1,-5.365320883E0,-1.707545430E0,5.694747509E0
9.168223875E0,-5.317711537E-1,-5.440207343E0,-1.363248216E0,5.633567448E0
9.178287875E0,-3.984493744E-1,-5.364626234E0,-1.851488969E0,5.689111348E0
9.188352875E0,-3.649267023E-1,-5.126931070E0,-2.841226990E0,5.872917887E0
9.198416875E0,-3.396328168E-1,-4.474633234E0,-3.225145814E0,5.526233667E0
9.208481875E0,-1.556560235E-1,-3.454956592E0,-2.303420121E0,4.155321660E0
9.218546875E0,1.818011905E-1,-2.191353409E0,-7.088249168E-1,2.310306083E0
9.228610875E0,7.365396957E-1,-7.319714123E-1,1.062142923E0,1.485402457E0
9.238675875E0,4.673384187E-1,2.843232000E-1,-1.481766307E-1,5.667461456E-1
9.248739875E0,6.117254689E-2,1.163909326E0,-1.315246084E0,1.757355758E0
9.258804875E0,4.301265921E-1,2.499224516E0,1.855781410E0,3.142460295E0
9.268869875E0,1.320023552E-2,3.387049368E0,2.049891428E0,3.959082284E0
9.278933875E0,-1.208774427E0,3.442163469E0,-2.027077639E0,4.173567864E0
9.288998875E0,-1.488376000E0,4.165896739E0,-1.794247359E0,4.773812139E0
9.299062875E0,-1.055462186E0,5.759781652E0,1.236395212E0,5.984793917E0
9.309127875E0,-8.077367091E-1,7.691865426E0,2.503858434E0,8.129362790E0
9.319192875E0,-1.045395328E0,9.295282470E0,1.011508520E0,9.408415226E0
9.329256875E0,-1.246752092E0,1.061013533E1,-7.425379157E-3,1.068313707E1
9.339321875E0,-7.838084409E-1,1.303261105E1,3.926023780E-1,1.306206121E1
9.349385875E0,2.527119827E-1,1.632561204E1,3.018582688E-1,1.633035794E1
9.359450875E0,1.553162565E0,1.948834760E1,1.166443655E0,1.958490738E1
9.369515875E0,2.207014299E0,2.143378291E1,-3.070057189E-1,2.154929730E1
9.379579875E0,3.100281740E0,2.299058069E1,-1.414562650E0,2.324176273E1
9.389644875E0,4.456602759E0,2.417759119E1,8.336302266E-2,2.458503962E1
9.399708875E0,5.003138498E0,2.301130556E1,-8.257603128E-1,2.356339233E1
9.409773875E0,4.369982107E0,1.948958955E1,-2.805374202E0,2.016955549E1
9.419838875E0,3.621506343E0,1.558411376E1,-3.206093831E0,1.631744305E1
9.429902875E0,3.033616757E0,1.248468484E1,-2.886356385E0,1.316819044E1
9.439967875E0,2.662216529E0,1.016966925E1,-1.905920846E0,1.068373080E1
9.450031875E0,2.688290141E0,7.726817742E0,5.083788559E-2,8.181271343E0
9.460096875E0,2.996040502E0,5.210380193E0,2.126277261E0,6.375372572E0
9.470161875E0,3.224220784E0,3.218554248E0,1.853925796E0,4.918509121E0
9.480225875E0,3.014414208E0,1.312976487E0,4.325406151E-1,3.316276777E0
9.490290875E0,2.666344078E0,-7.165868032E-1,-5.144906580E-1,2.808485006E0
9.500354875E0,2.291374125E0,-2.755323206E0,-7.388658643E-1,3.658978562E0
9.510419875E0,1.860409481E0,-4.862487234E0,-1.176009554E-1,5.207565220E0
9.520484875E0,1.484433807E0,-6.980936973E0,1.089256681E0,7.219660994E0
9.530548875E0,1.215489661E0,-8.808040422E0,1.844698305E0,9.080853651E0
9.540613875E0,1.268969173E0,-9.724252337E0,1.293121097E0,9.891588772E0
9.550677875E0,1.274999991E0,-1.007252829E1,7.042280551E-1,1.017729769E1
9.560742875E0,1.169960097E0,-1.053228316E1,2.118602352E0,1.080676969E1
9.570807875E0,1.259180788E0,-1.100426807E1,4.653579667E0,1.201396087E1
9.580871875E0,1.210505714E0,-1.073126157E1,2.768668891E0,1.114857957E1
9.590936875E0,1.025485120E0,-1.035530315E1,1.175849486E-1,1.040662045E1
9.601000875E0,9.673505668E-1,-1.021765618E1,-1.023042445E0,1.031420772E1
9.611065875E0,9.863279975E-1,-1.016560193E1,-1.327848442E0,1.029929546E1
9.621130875E0,1.046877450E0,-1.022056342E1,-1.806642433E0,1.043167416E1
9.631194875E0,1.118351330E0,-1.044777920E1,-3.442380400E0,1.105697892E1
9.641259875E0,1.179889547E0,-1.034973543E1,-3.328880097E0,1.093574897E1
9.651323875E0,1.136056479E0,-1.007281129E1,-2.208526096E0,1.037447537E1
9.661388875E0,1.105833391E0,-9.975628231E0,-1.829299078E0,1.020207632E1
9.671453875E0,1.082034566E0,-9.942706068E0,-1.825483185E0,1.016664112E1
9.681517875E0,1.066312791E0,-9.892259799E0,-1.713917287E0,1.009610516E1
9.691580250E0,1.063940941E0,-9.862985129E0,-1.651472971E0,1.005672954E1
9.701644250E0,1.039575374E0,-9.852153747E0,-1.610643033E0,1.003692290E1
9.711709250E0,1.050529256E0,-9.872464635E0,-1.593351793E0,1.005524438E1
9.721774250E0,1.048237367E0,-9.877908393E0,-1.561090220E0,1.005529107E1
9.731838250E0,1.074695287E0,-9.900975659E0,-1.535286457E0,1.007677495E1
9.741903250E0,1.105531602E0,-9.895259421E0,-1.504417398E0,1.006983768E1
9.751967250E0,1.097688951E0,-9.888565528E0,-1.478057418E0,1.005849407E1
9.762032250E0,1.078863694E0,-9.884605794E0,-1.444063607E0,1.004762152E1
9.772097250E0,1.060275176E0,-9.870635626E0,-1.373080602E0,1.002192504E1
9.782161250E0,1.037000919E0,-9.846456220E0,-1.282213262E0,9.983593634E0
9.792226250E0,1.001163115E0,-9.823572557E0,-1.221663590E0,9.949742072E0
9.802290250E0,9.695445883E-1,-9.814060307E0,-1.173601086E0,9.931421646E0
9.812355250E0,9.061584317E-1,-9.806054884E0,-1.126995926E0,9.912111546E0
9.822420250E0,8.576745620E-1,-9.892239919E0,-4.175204337E-1,9.938125556E0
9.832484250E0,7.915834835E-1,-1.012546547E1,1.813165441E0,1.031693871E1
9.842549250E0,7.457206283E-1,-1.000052567E1,4.883576971E-1,1.004017461E1
9.852613250E0,6.559179208E-1,-1.000522450E1,6.382767981E-1,1.004699671E1
9.862678250E0,4.870194887E-1,-1.007303349E1,1.506633785E0,1.019672187E1
9.872743250E0,3.312636971E-1,-9.880126827E0,1.536784221E-1,9.886873055E0
9.882807250E0,3.695189228E-1,-9.463163633E0,-5.161157455E-1,9.484428588E0
9.892872250E0,1.573390715E-1,-9.071218336E0,1.652148324E-1,9.074086930E0
9.902936250E0,6.552793683E-2,-8.748887064E0,-7.327394441E-2,8.749439288E0
9.913001250E0,3.574329838E-3,-8.060179201E0,1.236840477E0,8.154524872E0
9.923065250E0,2.450983963E-1,-7.175301930E0,1.472420703E0,7.328919002E0
9.933130250E0,4.915216255E-1,-5.823133310E0,5.237258674E0,7.847251332E0
9.943195250E0,-2.344651616E-1,-2.229525787E0,1.533380148E1,1.549681344E1
9.953259250E0,-1.533875231E0,-3.688534146E0,2.695368780E0,4.819032084E0
9.963324250E0,-7.258432379E-1,-4.755401326E0,-5.009155283E0,6.944949736E0
9.973388250E0,2.159020060E-1,5.764785115E0,-6.129432685E0,8.417202988E0
9.983453250E0,-2.279365553E0,2.009152649E1,-6.568185529E0,2.126043285E1
9.993518250E0,-2.636937262E0,4.561753005E1,-9.254395815E0,4.662141490E1
1.000358225E1,-4.190145142E0,6.737954289E1,-1.123797894E1,6.843867538E1
1.001364725E1,-9.279901954E0,6.898285410E1,-1.234311790E1,7.069019239E1
1.002371125E1,-1.534735298E1,6.855994605E1,-6.081800682E0,7.051947068E1
1.003377625E1,-1.244054772E1,6.515028023E1,-4.633670483E0,6.648907537E1
1.004384125E1,-8.467479286E0,4.179676287E1,2.803032158E1,5.103299443E1
1.005390525E1,-4.326772060E0,2.400961940E1,3.104109035E1,3.948078102E1
1.006397025E1,-7.257432505E-1,1.452933336E1,-1.062696595E1,1.801556651E1
1.007403425E1,3.403401691E0,4.185780780E0,2.712637947E0,6.038402806E0
1.008409925E1,4.505684872E0,6.165766114E-1,1.545937277E1,1.611439013E1
1.009416425E1,4.336012707E0,3.563755149E-1,1.311559707E0,4.544028892E0
1.010422825E1,4.023350100E0,-6.861345041E-1,-3.896814891E0,5.642986167E0
1.011429325E1,4.576774735E0,-2.992380438E0,-2.265065163E0,5.918760669E0
1.012435725E1,4.787659246E0,-4.821128123E0,-2.035522188E0,7.092834977E0
1.013442225E1,4.795679579E0,-6.321548803E0,-1.567395857E0,8.088093203E0
1.014448725E1,4.854733241E0,-7.782324191E0,1.946894040E-1,9.174470482E0
1.015455125E1,5.107862130E0,-8.628604576E0,1.993629227E0,1.022338642E1
1.016461625E1,5.298995916E0,-8.773823685E0,1.850650186E0,1.041557708E1
1.017468025E1,5.384966358E0,-8.719659172E0,1.209226270E0,1.031952261E1
1.018474525E1,5.301367546E0,-8.612879659E0,1.221005340E-1,1.011440074E1
1.019481025E1,5.219172066E0,-8.472042453E0,-1.105364079E0,1.001184749E1
1.020487425E1,5.165696940E0,-8.516242726E0,-1.417565049E0,1.006083027E1
1.021493925E1,5.115444215E0,-8.620949986E0,-1.322430850E0,1.011124975E1
1.022500325E1,5.121066313E0,-8.659078510E0,-1.318605602E0,1.014611657E1
1.023506825E1,5.263004549E0,-8.676951694E0,-1.383867545E0,1.024225546E1
1.024513225E1,5.549947886E0,-8.646674227E0,-1.538759849E0,1.038916159E1
1.025519725E1,6.045893515E0,-8.597974522E0,-1.550320233E0,1.062456997E1
1.026526225E1,6.626025601E0,-8.653224862E0,-1.568695547E0,1.101105451E1
1.027532625E1,6.747779249E0,-8.786601605E0,-1.688715057E0,1.120663425E1
1.028539125E1,6.892311310E0,-8.997416534E0,-1.660697977E0,1.145492808E1
1.029545525E1,7.101921712E0,-9.114915748E0,-1.486590114E0,1.165027602E1
1.030552025E1,7.319545138E0,-9.123894732E0,-1.366941610E0,1.177666020E1
1.031558525E1,7.471714833E0,-9.180405732E0,-1.123696781E0,1.188987243E1
1.032564925E1,7.460816792E0,-9.327912272E0,-9.508514053E-1,1.198239763E1
1.033571425E1,7.206524307E0,-9.452293659E0,-8.335563324E-1,1.191531217E1
1.034577825E1,6.776948084E0,-9.628124111E0,-6.992855499E-1,1.179477849E1
1.035584325E1,6.510542507E0,-9.915079143E0,-6.127262564E-1,1.187734784E1
1.036590825E1,6.509279509E0,-1.022318297E1,-6.439988834E-1,1.213667682E1
1.037597225E1,6.477064859E0,-1.045012276E1,-4.625451271E-1,1.230330781E1
1.038603725E1,6.322006055E0,-1.062270918E1,1.810005605E-2,1.236163575E1
1.039610125E1,6.213682292E0,-1.094231916E1,1.274398897E0,1.264785708E1
1.040616625E1,6.073827419E0,-1.131801095E1,2.806372907E0,1.314779374E1
1.041623125E1,5.719243491E0,-1.134647987E1,3.208616905E0,1.310524987E1
1.042629525E1,5.319458247E0,-1.108177174E1,2.123687090E0,1.247446784E1
1.043636025E1,5.001248678E0,-1.071616523E1,9.996668851E-1,1.186794083E1
1.044642425E1,4.620618913E0,-1.044249098E1,5.881749308E-1,1.143423311E1
1.045648925E1,4.316302328E0,-1.027662418E1,4.788349217E-1,1.115655651E1
1.046655425E1,4.047259364E0,-1.014442097E1,3.736166149E-1,1.092836560E1
1.047661825E1,3.782205371E0,-9.982372409E0,2.694455445E-1,1.067826940E1
1.048668325E1,3.501791620E0,-9.782395880E0,2.775492007E-1,1.039398130E1
1.049674725E1,3.230246632E0,-9.601215810E0,3.609076917E-1,1.013647339E1
1.050681225E1,3.018654609E0,-9.441103842E0,4.045115483E-1,9.920198940E0
1.051687625E1,3.023277418E0,-9.204554148E0,1.143539600E-1,9.689019571E0
1.052694125E1,3.120895221E0,-8.982546480E0,-2.760114195E-1,9.513270234E0
1.053700625E1,3.190615959E0,-8.760542319E0,-7.435495571E-1,9.353074247E0
1.054707025E1,3.146433813E0,-8.292027149E0,-1.301693115E0,8.963936911E0
1.055713525E1,2.988472451E0,-7.492320421E0,-1.389853925E0,8.185201696E0
1.056719925E1,3.073594463E0,-6.395007373E0,-9.174632192E-1,7.154358181E0
1.057726425E1,1.879000119E0,-1.877166724E-1,-4.220819928E-2,1.888825171E0
1.058732925E1,4.687742025E-1,7.843789537E0,2.920110607E0,8.382829445E0
1.059739325E1,1.644883451E0,1.812155509E1,-3.132347578E0,1.846369416E1
1.060745825E1,-8.308760418E-1,3.890303432E1,-5.163013653E0,3.925293803E1
1.061752225E1,-4.381210515E0,6.209963346E1,-7.257772813E0,6.267563121E1
1.062758725E1,-5.804861931E0,6.924714357E1,-2.486081729E0,6.953448006E1
1.063765225E1,-6.398466001E0,6.846293840E1,7.631012868E0,6.918342763E1
1.064771625E1,-7.274226294E0,6.720388318E1,-3.087864300E0,6.766691354E1
1.065778125E1,-4.185167407E0,4.734341293E1,-4.608943777E0,4.775098676E1
1.066784525E1,-2.539710637E0,2.570091483E1,-3.911472691E0,2.612061967E1
1.067791025E1,-1.617268952E0,1.276489043E1,-6.608102131E0,1.446461200E1
1.068797425E1,-9.905317801E-1,7.381948963E0,-1.170569377E0,7.539532901E0
1.069804175E1,-4.835619278E0,-6.666815193E0,4.803838959E1,4.873927075E1
1.070810675E1,-2.618106011E0,-6.752713714E0,1.225863733E1,1.423825168E1
1.071817075E1,1.754357215E0,-1.899329426E0,-8.223089061E0,8.620000882E0
1.072823575E1,2.266286354E0,-4.029543763E0,-2.146190100E0,5.096999973E0
1.073829975E1,2.787967333E0,-5.228908265E0,-2.967449664E0,6.627216687E0
1.074836475E1,2.996478751E0,-6.360519326E0,-2.682801944E0,7.525457944E0
1.075842975E1,3.231647041E0,-7.350400311E0,-2.430455412E0,8.389221706E0
1.076849375E1,3.382163727E0,-8.075443357E0,-2.341421760E0,9.062785044E0
1.077855875E1,3.363439481E0,-8.608317077E0,-2.438788279E0,9.558427502E0
1.078862275E1,3.414223133E0,-8.981973453E0,-2.466415789E0,9.920482526E0
1.079868775E1,3.534501529E0,-9.129747210E0,-2.555425029E0,1.011806218E1
1.080875275E1,3.575566232E0,-9.144576334E0,-2.654333898E0,1.017120635E1
1.081881675E1,3.672287073E0,-9.088946509E0,-2.715247267E0,1.017188324E1
1.082888175E1,3.776510183E0,-9.002726975E0,-2.893088284E0,1.018239078E1
1.083894575E1,3.875584236E0,-8.932248146E0,-3.127454335E0,1.022673852E1
1.084901075E1,3.971420685E0,-8.890290865E0,-3.397225570E0,1.031264251E1
1.085907575E1,3.973846695E0,-8.899842292E0,-3.649486732E0,1.040756474E1
1.086913975E1,3.892536191E0,-8.894452913E0,-3.714568581E0,1.039524653E1
1.087920475E1,3.893774339E0,-8.831112950E0,-3.604833008E0,1.030266255E1
1.088926875E1,3.988716164E0,-8.769200292E0,-3.511594477E0,1.025378107E1
1.089933375E1,4.053489573E0,-8.728513611E0,-3.560448841E0,1.026131198E1
1.090939775E1,4.082705478E0,-8.715920463E0,-3.638848893E0,1.028965377E1
1.091946275E1,4.136535822E0,-8.719175608E0,-3.743281918E0,1.035118889E1
1.092952775E1,4.239022310E0,-8.703454199E0,-3.872690156E0,1.042675185E1
1.093959175E1,4.339887365E0,-8.681788511E0,-4.000246289E0,1.049809718E1
1.094965675E1,4.369511113E0,-8.683336269E0,-4.142641485E0,1.056666620E1
1.095972075E1,4.285367926E0,-8.732401425E0,-4.238108390E0,1.061040883E1
1.096978575E1,4.107366987E0,-8.779308373E0,-4.266606550E0,1.059012042E1
1.097985075E1,3.872649518E0,-8.836186579E0,-4.326955370E0,1.057346444E1
1.098991475E1,3.671228727E0,-8.926624879E0,-4.453824747E0,1.063010381E1
1.099997975E1,3.562995303E0,-8.983549862E0,-4.589494184E0,1.069871770E1
1.101004375E1,3.408794871E0,-9.054584177E0,-4.596254150E0,1.071125246E1
1.102010875E1,3.230641319E0,-9.147647876E0,-4.464171688E0,1.067920099E1
1.103017275E1,3.052441868E0,-9.216207064E0,-4.346769245E0,1.063721189E1
1.104023775E1,2.879373347E0,-9.271342800E0,-4.315198374E0,1.062400702E1
1.105030275E1,2.690391045E0,-9.342186495E0,-4.275902453E0,1.062064001E1
1.106036675E1,2.519335137E0,-9.413754076E0,-4.243027360E0,1.062869214E1
1.107043175E1,2.342955338E0,-9.557524830E0,-4.353947287E0,1.076069596E1
1.108049575E1,2.178845045E0,-9.510975146E0,-4.450039260E0,1.072421854E1
1.109056075E1,2.031066610E0,-9.387477858E0,-4.360804609E0,1.054829792E1
1.110062575E1,1.906051970E0,-9.077686526E0,-4.085760941E0,1.013562377E1
1.111068975E1,1.754147008E0,-8.659740415E0,-3.794695901E0,9.616020630E0
1.112075475E1,1.549007533E0,-8.383437256E0,-3.656499590E0,9.276391206E0
1.113081875E1,1.225242379E0,-8.229093567E0,-3.796852646E0,9.145233175E0
1.114088375E1,6.529680736E-1,-7.595348361E0,-6.452313595E0,9.987393792E0
1.115094875E1,-2.272217770E-1,-6.497753477E0,-1.145784127E1,1.317401064E1
1.116101275E1,-8.931915732E-1,-6.413406807E0,-6.319036254E0,9.047640424E0
1.117107775E1,-2.087116557E0,-2.582335669E0,4.264803327E1,4.277708797E1
1.118114175E1,-3.669976253E0,3.036429852E0,1.806921199E1,1.868649389E1
1.119120675E1,-3.465372529E0,6.604176895E0,-9.400646372E0,1.199983798E1
1.120127075E1,-7.951650200E0,1.460766968E1,4.204751779E0,1.715496114E1
1.121133575E1,-1.676342115E1,3.143548972E1,-9.560478258E0,3.688638024E1
1.122140075E1,-2.573653841E1,5.267853879E1,-9.763474874E0,5.943671676E1
1.123146475E1,-3.277396182E1,6.843217269E1,-1.065885082E1,7.662053206E1
1.124152975E1,-3.292459077E1,6.921267307E1,-9.046777559E0,7.717685518E1
1.125159375E1,-2.005849907E1,6.548944213E1,-7.569263932E0,6.890939103E1
1.126165875E1,-1.002088802E1,3.830747669E1,8.948503405E0,4.059503271E1
1.127172375E1,-4.562125414E0,1.676801121E1,1.775436515E1,2.484344320E1
1.128178775E1,-3.793398111E0,1.134632785E1,6.310185762E-1,1.198028419E1
1.129185275E1,-1.329122111E0,5.826584337E0,-5.474448053E0,8.104642627E0
1.130191675E1,1.242058825E0,2.060345957E0,-3.642422419E0,4.365200644E0
1.131198175E1,2.500918162E0,2.155003023E-1,-7.251202297E-1,2.612820579E0
1.132204675E1,4.293666879E0,-1.756801790E0,2.770135372E0,5.403293235E0
1.133211075E1,5.311620054E0,-2.920891795E0,2.450585622E0,6.538370314E0
1.134217575E1,5.492077993E0,-3.460121437E0,-2.817200927E-1,6.497286145E0
1.135223975E1,6.114525209E0,-3.846922939E0,-1.153845098E0,7.315571963E0
1.136230475E1,6.579967083E0,-4.429938287E0,-1.224681777E0,8.026217384E0
1.137236875E1,6.948827573E0,-4.792949222E0,-9.842086011E-1,8.498660686E0
1.138243375E1,7.329648542E0,-4.894994245E0,-4.538257226E-1,8.825569341E0
1.139249875E1,7.749134810E0,-4.969399479E0,-3.600324366E-1,9.212689338E0
1.140256275E1,7.855043088E0,-5.000516607E0,-4.865399440E-1,9.324354635E0
1.141262775E1,8.100558318E0,-5.025550291E0,-9.465718281E-1,9.579728546E0
1.142269175E1,8.627294215E0,-5.130251119E0,-9.699016339E-1,1.008416537E1
1.143275675E1,9.302910163E0,-5.201605276E0,-9.657699913E-1,1.070203470E1
1.144282075E1,1.010377113E1,-5.124971668E0,-1.116073766E0,1.138407424E1
1.145288575E1,1.066054184E1,-5.103499523E0,-1.227877865E0,1.188278350E1
1.146295075E1,1.086542359E1,-5.173649154E0,-1.440025958E0,1.212013821E1
1.147301475E1,1.107780382E1,-5.136560265E0,-1.561186114E0,1.231012961E1
1.148307975E1,1.174696503E1,-5.127281903E0,-1.529657342E0,1.290813924E1
1.149314375E1,1.199068984E1,-5.333327842E0,-1.340233868E0,1.319156001E1
1.150320875E1,1.232583470E1,-5.458527254E0,-8.567866623E-1,1.350762023E1
1.151327375E1,1.281214061E1,-5.631065140E0,3.220176777E-2,1.399503050E1
1.152333775E1,1.308363151E1,-6.072014197E0,1.149074939E0,1.446966285E1
1.153340275E1,1.332560567E1,-6.479523613E0,2.258738476E0,1.498859207E1
1.154346675E1,1.273166538E1,-6.914858758E0,2.401155599E0,1.468591581E1
1.155353175E1,1.186886076E1,-7.174090971E0,1.797126528E0,1.398453077E1
1.156359675E1,1.094568131E1,-7.543882338E0,1.793977218E0,1.341403945E1
1.157366075E1,9.851901147E0,-8.095677062E0,2.244129792E0,1.294743457E1
1.158372575E1,8.874223886E0,-8.557016530E0,2.671252524E0,1.261388011E1
1.159378975E1,8.037100825E0,-8.881565650E0,2.946742920E0,1.233533510E1
1.160385475E1,7.405162409E0,-9.023740699E0,2.937236516E0,1.203709620E1
1.161391875E1,6.901086227E0,-9.041496938E0,2.850265031E0,1.172593999E1
1.162398375E1,6.457520540E0,-8.993108305E0,2.620117453E0,1.137719579E1
1.163404875E1,6.171780560E0,-8.881773226E0,1.904819376E0,1.098203568E1
1.164411275E1,5.962511051E0,-8.715792409E0,1.178108704E0,1.062565365E1
1.165417775E1,5.774458163E0,-8.544980037E0,6.234956217E-1,1.033197937E1
1.166424175E1,5.676034906E0,-8.321416424E0,-5.590694647E-2,1.007305659E1
1.167430675E1,5.863277954E0,-7.999264662E0,-7.626909292E-1,9.947258967E0
1.168437175E1,6.123016536E0,-7.653826364E0,-1.059050038E0,9.858700548E0
1.169443304E1,6.100969024E0,-7.452185717E0,-1.029577732E0,9.685913757E0
1.170449804E1,5.949616771E0,-7.389429891E0,-1.111412439E0,9.551798335E0
1.171456204E1,5.709869235E0,-7.170838165E0,-1.120818343E0,9.234704133E0
1.172462704E1,5.072826784E0,-6.552899737E0,-1.240566323E0,8.379324039E0
1.173469104E1,4.189811266E0,-4.884599065E0,-2.177836400E0,6.793879441E0
1.174475604E1,3.905767563E0,-3.412950194E0,-1.666121415E0,5.447862871E0
1.175482104E1,4.079970151E0,-1.880728848E0,6.764673024E-1,4.543226325E0
1.176488504E1,2.779508459E0,6.228693849E0,4.771113964E0,8.323810594E0
1.177495004E1,4.453259906E-1,1.574902045E1,2.472260081E0,1.594810428E1
1.178501404E1,-2.292005040E0,2.652534885E1,-1.134313059E0,2.664834112E1
1.179507904E1,-6.214788585E0,4.276797136E1,2.541497546E0,4.329182580E1
1.180514304E1,-1.068065509E1,5.718401024E1,1.005203175E0,5.818159377E1
1.181520804E1,-1.306677750E1,6.433139405E1,-4.581036771E0,6.580467182E1
1.182527304E1,-1.346373561E1,6.441758201E1,-4.190059188E0,6.594280586E1
1.183533704E1,-1.113249049E1,4.858644678E1,-3.400395638E0,4.996136353E1
1.184540204E1,-7.686014117E0,3.027967060E1,-3.732468955E0,3.146211355E1
1.185546604E1,-5.068371205E0,1.981506779E1,-2.851708124E0,2.065084835E1
1.186553104E1,-3.453563200E0,1.277118905E1,-2.048455644E0,1.338755165E1
1.187559604E1,-2.702521679E0,6.952260473E0,-1.603242213E-1,7.460780989E0
1.188566004E1,-5.722830173E0,-1.963872162E0,2.795615784E1,2.860339735E1
1.189572504E1,-4.852420667E0,-2.650383226E0,1.337817214E1,1.447570403E1
1.190578904E1,-1.091090733E0,2.548614192E-1,-6.678310819E0,6.771651846E0
1.191585404E1,-1.577769695E0,-1.070920470E0,-3.791689555E0,4.244188679E0
1.192591804E1,-1.183208792E0,-1.227063932E0,-2.997419568E0,3.448215917E0
1.193598304E1,-1.279988835E0,-1.719030531E0,-2.265310162E0,3.118504051E0
1.194604804E1,-1.313889676E0,-2.144179827E0,-2.228918261E0,3.360340731E0
1.195611204E1,-1.380074603E0,-2.525334672E0,-2.804707035E0,4.018495075E0
1.196617704E1,-1.362270562E0,-3.144805071E0,-3.495978903E0,4.895656085E0
1.197624104E1,-1.115167959E0,-3.966687364E0,-3.156342212E0,5.190443563E0
1.198630604E1,-8.515117429E-1,-4.719008841E0,-2.764112155E0,5.534838091E0
1.199637104E1,-5.586824521E-1,-5.555253650E0,-2.730405296E0,6.215149417E0
1.200643504E1,-7.640381277E-2,-6.392400100E0,-2.786757837E0,6.973853728E0
1.201650004E1,3.784130859E-1,-7.156183289E0,-2.893389416E0,7.728250645E0
1.202656404E1,7.453546657E-1,-7.878998546E0,-2.935144675E0,8.440926841E0
1.203662904E1,1.060392120E0,-8.467436017E0,-2.916409611E0,9.018167728E0
1.204669304E1,1.332499025E0,-8.915221639E0,-2.992186018E0,9.497889644E0
1.205675804E1,1.544402412E0,-9.240323905E0,-3.162869166E0,9.887998081E0
1.206682304E1,1.723990870E0,-9.412696899E0,-3.301470689E0,1.012278204E1
1.207688704E1,1.859595695E0,-9.443821043E0,-3.394018080E0,1.020603796E1
1.208695204E1,1.998033350E0,-9.422428420E0,-3.469372317E0,1.023771649E1
1.209701604E1,2.124046402E0,-9.429219376E0,-3.554435856E0,1.029833799E1
1.210708104E1,2.209516030E0,-9.441580975E0,-3.647691929E0,1.036007089E1
1.211714504E1,2.293162643E0,-9.448306442E0,-3.665833793E0,1.039073755E1
1.212721004E1,2.363074730E0,-9.434409365E0,-3.643284298E0,1.038584242E1
1.213727504E1,2.392750227E0,-9.447917603E0,-3.621299937E0,1.039722145E1
1.214733904E1,2.420195449E0,-9.344966261E0,-3.587496014E0,1.029834298E1
1.215740404E1,2.426674895E0,-9.517148636E0,-3.743723091E0,1.051096246E1
1.216746804E1,2.389935962E0,-9.980722325E0,-4.181346544E0,1.108197956E1
1.217753304E1,2.509938954E0,-1.010016925E1,-4.432350263E0,1.131189379E1
1.218759704E1,2.298994655E0,-9.723134349E0,-3.861113546E0,1.071134519E1
1.219766204E1,2.213353850E0,-9.298497269E0,-3.121496900E0,1.005508476E1
1.220772704E1,2.188802853E0,-9.171480542E0,-2.987727808E0,9.891078340E0
1.221779104E1,2.120503574E0,-9.197063280E0,-3.064776861E0,9.923475480E0
1.222785604E1,1.973573569E0,-9.267299450E0,-3.084532264E0,9.964545701E0
1.223792004E1,1.828076279E0,-9.340101378E0,-3.109756568E0,1.001248933E1
1.224798504E1,1.676368369E0,-9.364107122E0,-3.140401825E0,1.001792577E1
1.225805004E1,1.516355658E0,-9.418254678E0,-3.178173669E0,1.005503076E1
1.226811404E1,1.329139215E0,-9.462683576E0,-3.213071898E0,1.008131056E1
1.227817904E1,1.122526680E0,-9.465088536E0,-3.231444142E0,1.006430317E1
1.228824304E1,8.922601848E-1,-9.427903753E0,-3.267529064E0,1.001789617E1
1.229830804E1,6.701446351E-1,-9.352313873E0,-3.292529419E0,9.937586155E0
1.230837204E1,4.299071753E-1,-9.250983964E0,-3.326924204E0,9.840424236E0
1.231843704E1,2.095220359E-1,-9.130971032E0,-3.374592752E0,9.736858206E0
1.232850204E1,1.536790799E-2,-8.974603037E0,-3.403663939E0,9.598367781E0
1.233856604E1,-2.299158816E-1,-8.825048802E0,-3.370969233E0,9.449750327E0
1.234863104E1,-5.853089181E-1,-8.751463348E0,-3.311529947E0,9.375336146E0
1.235869504E1,-3.913891684E0,-8.286527842E-1,2.492393915E1,2.524297836E1
1.236876004E1,-8.895394315E0,1.597396283E1,5.621612765E1,5.911470660E1
1.237882404E1,-7.710229191E0,8.711773617E0,1.179973966E0,1.169337301E1
1.238888904E1,-1.002748134E1,1.744606252E1,-1.314956238E1,2.403802135E1
1.239895404E1,-1.361176489E1,3.626603127E1,-1.251974474E1,4.070932542E1
1.240901804E1,-1.710724561E1,5.136490800E1,-1.386398103E1,5.588579065E1
1.241908304E1,-1.835730430E1,6.354099551E1,-1.097171896E1,6.704347357E1
1.242914704E1,-1.253952354E1,6.884643155E1,1.636763247E1,7.186772697E1
1.243921204E1,-8.110255925E0,5.399624860E1,1.185005495E1,5.587302494E1
1.244927704E1,-1.095382531E1,3.120537372E1,-1.506478512E1,3.634156557E1
1.245934104E1,-5.961103041E0,1.794267941E1,-1.963634414E1,2.725913618E1
1.246940604E1,-2.727749491E0,1.416407066E1,-7.751854350E0,1.637537056E1
1.247947004E1,-7.867335105E-1,9.804461517E0,6.784079348E0,1.194864628E1
1.248953504E1,5.633702819E0,4.659153818E0,3.577163984E1,3.651104680E1
1.249959904E1,2.405266631E0,4.313342468E0,-2.153319390E-1,4.943338816E0
1.250966404E1,2.189831378E0,3.946610364E0,-6.111164814E0,7.597198840E0
1.251972904E1,4.520663392E0,2.511557463E0,-3.674323073E0,6.343892215E0
1.252979304E1,5.749027453E0,1.301302521E0,-4.224246688E0,7.251824942E0
1.253985804E1,5.985418687E0,3.506709713E-1,-3.796559116E0,7.096623713E0
1.254992204E1,5.937764465E0,-9.279414296E-1,-3.130126805E0,6.776121011E0
1.255998704E1,5.783009716E0,-2.435709720E0,-2.040566581E0,6.598469155E0
1.257005104E1,6.060173585E0,-3.912349189E0,6.804691368E-1,7.245358397E0
1.258011604E1,6.902013595E0,-5.066347484E0,3.463335067E0,9.235819308E0
1.259018104E1,7.361065632E0,-5.613997702E0,2.901795373E0,9.701684072E0
1.260024504E1,7.639795970E0,-6.022917466E0,1.790022161E0,9.891723642E0
1.261031004E1,8.393502653E0,-6.273060767E0,1.473710014E0,1.058177676E1
1.262037404E1,9.538155928E0,-6.566388679E0,1.373139074E0,1.166102010E1
1.263043904E1,1.033281008E1,-6.654364132E0,8.130272698E-1,1.231700205E1
1.264050304E1,1.035157613E1,-6.933687378E0,4.097260952E-1,1.246591451E1
1.265056804E1,9.457778932E0,-7.550620084E0,1.568492941E-1,1.210314206E1
1.266063304E1,8.262978181E0,-8.380215440E0,1.607319184E-1,1.176990459E1
1.267069704E1,7.341573354E0,-9.183974288E0,2.136924163E-1,1.175966613E1
1.268076204E1,6.898749095E0,-9.721512331E0,1.881599645E-1,1.192207806E1
1.269082613E1,7.154240259E0,-9.883821098E0,1.830541027E-1,1.220272846E1
1.270089113E1,7.332813056E0,-1.024497671E1,2.458368266E-1,1.260119561E1
1.271095513E1,7.382526083E0,-1.063886855E1,4.504133606E-1,1.295724074E1
1.272102013E1,7.278521073E0,-1.077390765E1,7.438874531E-1,1.302333766E1
1.273108513E1,7.074913423E0,-1.093056976E1,9.725999777E-1,1.305671115E1
1.274114913E1,6.902922837E0,-1.109346501E1,1.243229145E0,1.312482107E1
1.275121413E1,6.497133088E0,-1.125097262E1,1.681224043E0,1.310052051E1
1.276127813E1,5.981205769E0,-1.123161015E1,2.247341083E0,1.292185865E1
1.277134313E1,5.511409473E0,-1.120646011E1,2.723098615E0,1.278184840E1
1.278140813E1,5.015347484E0,-1.115003916E1,2.950421988E0,1.257704550E1
1.279147213E1,4.644851236E0,-1.100083225E1,2.707638577E0,1.224435624E1
1.280153713E1,4.280384929E0,-1.085630895E1,2.024544625E0,1.184398245E1
1.281160112E1,3.947737415E0,-1.069190981E1,1.157858627E0,1.145609893E1
1.282166613E1,3.701854103E0,-1.046945132E1,3.582589030E-1,1.111042232E1
1.283173013E1,3.510021283E0,-1.027299423E1,-3.065525597E-1,1.086041594E1
1.284179513E1,3.327661245E0,-1.014442097E1,-6.596869630E-1,1.069662532E1
1.285186013E1,3.147529289E0,-1.006136946E1,-7.680697829E-1,1.057014793E1
1.286192412E1,2.995040921E0,-9.989313054E0,-8.507705352E-1,1.046329087E1
1.287198913E1,2.857427870E0,-9.955299801E0,-8.786213350E-1,1.039446312E1
1.288205313E1,2.615530897E0,-9.948214145E0,-5.787463687E-1,1.030256832E1
1.289211813E1,1.905309958E0,-9.910388507E0,2.193448466E0,1.032749837E1
1.290218213E1,5.544063833E-1,-9.260640641E0,5.828390542E0,1.095613836E1
1.291224713E1,4.103315744E-1,-8.528286821E0,4.313109748E0,9.565718154E0
1.292231213E1,1.208368045E0,-8.773820761E0,5.033569016E-1,8.870932998E0
1.293237613E1,1.341102033E0,-8.902927283E0,-3.714414873E-1,9.011028668E0
1.294244113E1,1.315350749E0,-9.013545493E0,-7.783657064E-1,9.142209970E0
1.295250513E1,1.621031489E0,-9.145091473E0,-9.106886351E-1,9.332191326E0
1.296257013E1,1.653449914E0,-9.194402797E0,-1.420850015E0,9.449325594E0
1.297263413E1,1.588764945E0,-8.961416981E0,-2.294538054E0,9.385950844E0
1.298269913E1,2.319479060E0,-7.441815680E0,-2.004098666E0,8.048416937E0
1.299276412E1,3.298435400E0,3.744009020E0,-1.992867334E0,5.372969369E0
1.300282813E1,1.555030458E-1,1.915818457E1,-4.126995798E0,1.959827318E1
1.301289313E1,-2.164413532E0,4.548709036E1,-6.410404846E0,4.598753489E1
1.302295713E1,-6.767177972E0,6.729057166E1,-2.421067269E0,6.767331305E1
1.303302213E1,-1.323086674E1,6.908902083E1,1.072575583E1,7.115750468E1
1.304308613E1,-1.614411915E1,6.860046023E1,-5.646015301E0,7.070030563E1
1.305315113E1,-1.076508771E1,6.674332841E1,-4.347961493E0,6.774558118E1
1.306321613E1,-6.375150229E0,4.501523409E1,-3.524037352E0,4.560079692E1
1.307328013E1,-3.966922422E0,2.265316594E1,-1.299819667E0,2.303458121E1
1.308334513E1,-2.584740629E0,8.435497940E0,8.037823541E0,1.193503736E1
1.309340912E1,-2.730695903E0,-1.380141699E0,3.409635408E1,3.423335877E1
1.310347413E1,-3.526230935E0,-7.777556371E0,2.408034264E1,2.554970820E1
1.311353813E1,-1.431524107E-1,-7.944995484E0,2.528303304E0,8.338810674E0
1.312360313E1,1.931106119E0,-6.177842368E0,-2.572808801E0,6.965217319E0
1.313366813E1,2.628829805E0,-5.075879615E0,-3.665554004E0,6.790551241E0
1.314373212E1,3.087121411E0,-6.184541523E0,-2.429381863E0,7.326716093E0
1.315379713E1,3.116797493E0,-7.352077292E0,-1.901225678E0,8.208661657E0
1.316386113E1,3.090600212E0,-8.298691805E0,-1.739778060E0,9.024794903E0
1.317392613E1,3.034334795E0,-8.949195131E0,-1.845821555E0,9.628205355E0
1.318399013E1,2.962647931E0,-9.364472573E0,-2.142377130E0,1.005288064E1
1.319405513E1,3.001857020E0,-9.466239268E0,-2.505497993E0,1.024198963E1
1.320412013E1,3.233502654E0,-9.318613445E0,-2.914373319E0,1.028521598E1
1.321418413E1,3.363092156E0,-9.229418263E0,-3.311213612E0,1.036613168E1
1.322424913E1,3.463086268E0,-9.102550641E0,-3.532734500E0,1.036000037E1
1.323431313E1,3.564302448E0,-8.980637364E0,-3.755610773E0,1.036632585E1
1.324437813E1,3.700495210E0,-8.913879703E0,-4.127062456E0,1.049683575E1
1.325444213E1,3.843330117E0,-8.876022490E0,-4.484160979E0,1.066126922E1
1.326450713E1,4.025318857E0,-8.734045077E0,-4.854400827E0,1.077274072E1
1.327457212E1,4.185872289E0,-8.663310140E0,-5.208713152E0,1.094098543E1
1.328463613E1,4.322761163E0,-8.670439065E0,-5.426866336E0,1.110466820E1
1.329470113E1,4.441559043E0,-8.706089539E0,-5.689477655E0,1.130900516E1
1.330476513E1,4.494234855E0,-8.696583136E0,-5.886689036E0,1.142286361E1
1.331483013E1,4.545060315E0,-8.672141774E0,-6.205053556E0,1.159164811E1
1.332489413E1,4.514201342E0,-8.712548373E0,-6.420485446E0,1.172642939E1
1.333495913E1,4.281064960E0,-8.768514998E0,-6.397638035E0,1.166808231E1
1.334502313E1,3.840276116E0,-8.868043379E0,-6.239222345E0,1.150294786E1
1.335508813E1,3.339027355E0,-9.006282667E0,-5.993705946E0,1.132195841E1
1.336515313E1,2.920959915E0,-9.145373894E0,-5.744981765E0,1.118814935E1
1.337521712E1,2.566140051E0,-9.332865449E0,-5.471496964E0,1.111866589E1
1.338528213E1,2.277155159E0,-9.469386824E0,-5.230988705E0,1.105522344E1
1.339534613E1,2.009067192E0,-9.566417275E0,-4.955933926E0,1.095965198E1
1.340541113E1,1.799897085E0,-9.640497404E0,-4.589383379E0,1.082780031E1
1.341547513E1,1.562560941E0,-9.839487509E0,-4.183098078E0,1.080534223E1
1.342554012E1,1.348424794E0,-1.003745786E1,-3.860746049E0,1.083855017E1
1.343560513E1,1.156864673E0,-1.034092484E1,-3.614317484E0,1.101527818E1
1.344566913E1,9.617047877E-1,-1.063031524E1,-3.545684621E0,1.124723778E1
1.345573413E1,8.183170997E-1,-1.071539924E1,-3.534084622E0,1.131278825E1
1.346579813E1,6.100932187E-1,-1.091697382E1,-3.515268867E0,1.148519248E1
1.347586313E1,3.979293011E-1,-1.110612072E1,-3.439188113E0,1.163324031E1
1.348592813E1,9.485495757E-2,-1.102218394E1,-3.332026484E0,1.151520459E1
1.349599213E1,-2.309202871E-1,-1.069721089E1,-3.055618660E0,1.112746379E1
1.350605713E1,-4.849834517E-1,-1.037917148E1,-2.686434234E0,1.073216374E1
1.351612113E1,-6.365163477E-1,-1.006475032E1,-2.120149379E0,1.030530861E1
1.352618613E1,-7.085407421E-1,-9.713989888E0,-1.626049862E0,9.874597090E0
1.353625013E1,-7.750553052E-1,-9.369484806E0,-1.296582503E0,9.490473247E0
1.354631513E1,-1.051212576E0,-6.562639444E0,1.963195405E1,2.072647833E1
1.355637913E1,-2.268661493E0,-1.696898820E0,3.902611353E1,3.912881071E1
1.356644413E1,-3.334396653E0,-1.007423217E0,-1.645531615E1,1.681994448E1
1.357650913E1,1.517545420E-1,-1.780751401E0,2.170532994E1,2.177878447E1
1.358657313E1,1.266873969E0,-3.939439924E0,2.964730709E0,5.090558392E0
1.359663813E1,1.259973816E0,-3.325983387E0,-9.106553645E0,9.776452260E0
1.360670213E1,-3.845607023E-1,9.261118358E-1,-6.698556803E0,6.773199636E0
1.361676713E1,1.305292369E0,1.622520483E1,-6.714027366E0,1.760793069E1
1.362683113E1,5.586143321E0,4.271332094E1,-1.085800933E1,4.442442064E1
1.363689613E1,8.729636861E0,6.833473469E1,-1.174274685E1,6.988372220E1
1.364696113E1,1.046572781E1,6.899372525E1,-9.650844637E0,7.044717442E1
1.365702512E1,9.513953717E0,6.870066748E1,1.811655806E1,7.168337815E1
1.366709013E1,4.196365702E0,6.760558690E1,9.201795432E0,6.835786644E1
1.367715413E1,3.170500075E0,4.797980517E1,-1.201109779E1,4.956188298E1
1.368721913E1,3.057956377E0,2.492836900E1,-7.065846730E0,2.609024470E1
1.369728229E1,3.611961933E0,7.486383158E0,-9.357140164E0,1.251592082E1
1.370734729E1,2.196400433E0,-1.029483241E1,4.322694504E1,4.449018461E1
1.371741229E1,1.809003392E0,-9.450019092E0,2.091731706E1,2.302410708E1
1.372747629E1,1.326671543E0,-4.700248049E0,-1.037971293E1,1.147130462E1
1.373754129E1,5.797395548E-1,-9.048235270E0,-3.118724150E0,9.588174997E0
1.374760529E1,5.355935517E-1,-1.090747560E1,-3.705604800E0,1.153218936E1
1.375767029E1,9.976181670E-1,-1.264176210E1,-3.632794978E0,1.319115576E1
1.376773429E1,1.647262537E0,-1.518164640E1,-3.525150077E0,1.567234968E1
1.377779929E1,2.011984221E0,-1.540373418E1,-2.281778991E0,1.570126181E1
1.378786429E1,2.401707138E0,-1.278352434E1,-3.469628133E0,1.346198392E1
1.379792829E1,3.061139309E0,-1.190184374E1,-3.761188139E0,1.285188681E1
1.380799329E1,4.408564374E0,-1.169072183E1,-3.546485397E0,1.298791652E1
1.381805729E1,5.718413186E0,-1.094831957E1,-3.080103875E0,1.273000356E1
1.382812229E1,6.156250355E0,-1.045257158E1,-2.539659181E0,1.239377020E1
1.383818629E1,7.866325876E0,-1.032498533E1,-2.398039472E0,1.319981054E1
1.384825129E1,1.147390240E1,-1.014304103E1,-2.414966723E0,1.550366995E1
1.385831629E1,1.350163259E1,-9.857921441E0,-1.675395684E0,1.680117997E1
1.386838029E1,1.419364705E1,-9.880456610E0,-1.015440919E0,1.732380327E1
1.387844529E1,1.343481762E1,-9.887703649E0,-3.766764629E-1,1.668540959E1
1.388850929E1,1.139873527E1,-9.697173296E0,2.049168420E-1,1.496690772E1
1.389857429E1,8.510700735E0,-9.891641164E0,8.952602450E-1,1.307968206E1
1.390863829E1,6.425961363E0,-1.034518395E1,1.791308695E0,1.230953278E1
1.391870329E1,4.756834479E0,-1.033247211E1,2.691083940E0,1.168885738E1
1.392876729E1,3.171451710E0,-1.063484800E1,4.343165606E0,1.191726418E1
1.393883229E1,-2.208502123E-1,-1.206655980E1,9.967940311E0,1.565281043E1
1.394889729E1,-4.303788702E0,-1.354662223E1,1.469121470E1,2.044175531E1
1.395896129E1,-5.649167535E-1,-1.222845985E1,8.904456915E0,1.513749366E1
1.396902629E1,4.030775479E0,-1.078806610E1,2.913089855E0,1.187920930E1
1.397909029E1,4.676928769E0,-1.075679285E1,1.235931673E0,1.179448101E1
1.398915529E1,4.483003523E0,-1.112360506E1,7.243764639E-1,1.201485045E1
1.399921929E1,4.293606945E0,-1.178907317E1,3.809847645E-1,1.255238846E1
1.400928429E1,4.173625296E0,-1.212687734E1,-1.199929782E-1,1.282554874E1
1.401934929E1,3.960115971E0,-1.226501664E1,-5.640352857E-1,1.290082507E1
1.402941329E1,3.636617595E0,-1.229139928E1,-9.305399323E-1,1.285182432E1
1.403947829E1,3.217037188E0,-1.230346208E1,-1.230354745E0,1.277647370E1
1.404954229E1,2.731380027E0,-1.228804999E1,-1.398251696E0,1.266537474E1
1.405960729E1,2.211611380E0,-1.222261146E1,-1.439943513E0,1.250427500E1
1.406967129E1,1.748783649E0,-1.199337371E1,-1.424396936E0,1.220361274E1
1.407973629E1,1.326235780E0,-1.166315104E1,-1.376188397E0,1.181870924E1
1.408980129E1,9.744588076E-1,-1.120018254E1,-1.268340012E0,1.131381214E1
1.409986529E1,6.908722106E-1,-1.064046133E1,-1.174126750E0,1.072731538E1
1.410993029E1,4.443432929E-1,-1.006780842E1,-1.123442062E0,1.014003596E1
1.411999429E1,2.355175873E-1,-9.653486409E0,-1.056175693E0,9.713947472E0
1.413005929E1,6.878317315E-2,-9.357061227E0,-1.103564452E0,9.422164318E0
1.414012329E1,-7.796417881E-2,-9.145138836E0,-1.104648380E0,9.211942834E0
1.415018829E1,-2.519462898E-1,-9.011946280E0,-1.205664439E0,9.095728636E0
1.416025329E1,-4.893754781E-1,-8.815190397E0,-1.528689190E0,8.960131736E0
1.417031729E1,-6.338215122E-1,-8.748217558E0,-1.625027915E0,8.920412316E0
1.418038229E1,-6.642183358E-1,-8.832322739E0,-9.053683998E-1,8.903415238E0
1.419044629E1,-1.195313040E0,-7.204624547E0,9.138451375E0,1.169814864E1
1.420051129E1,-1.147898187E0,-4.739524966E0,1.584170115E1,1.657529072E1
1.421057529E1,-8.917704074E-1,-7.254017147E0,-1.933179980E0,7.559973814E0
1.422064029E1,-2.135167806E-1,-5.198358902E0,-6.079177621E0,8.001557676E0
1.423070429E1,1.431397515E0,5.311510711E0,-5.886438190E0,8.056748690E0
1.424076929E1,3.729162939E0,2.081446921E1,-7.702311476E0,2.250498582E1
1.425083429E1,6.091814039E0,5.145902010E1,-9.120544862E0,5.261487705E1
1.426089829E1,3.115428367E0,6.950621733E1,-1.044684832E1,7.035592925E1
1.427096329E1,-1.021167331E1,6.866288043E1,-8.035310993E0,6.988158301E1
1.428102729E1,-2.192031803E1,6.906512209E1,7.599612150E0,7.285770746E1
1.429109229E1,-2.120452294E1,6.852780507E1,1.254065088E1,7.282142394E1
1.430115629E1,-9.814503525E0,5.150554055E1,-5.668584968E0,5.273782364E1
1.431122129E1,-4.658232297E0,2.502438496E1,-7.774882439E0,2.661517927E1
1.432128629E1,-2.361704435E0,1.241012348E1,-4.619027885E0,1.345080783E1
1.433135029E1,-1.988456195E0,-8.389375688E0,5.506188260E1,5.573281348E1
1.434141529E1,-2.110189378E0,-1.294591789E1,2.749900615E1,3.046711388E1
1.435147929E1,1.868942615E0,-4.879844694E0,-9.652799946E0,1.097644649E1
1.436154429E1,2.578311616E0,-5.496995502E0,-4.115632904E0,7.335058591E0
1.437160829E1,2.811624583E0,-6.396598400E0,-3.409464669E0,7.774712421E0
1.438167329E1,3.190332954E0,-6.341829286E0,-2.493619959E0,7.524304855E0
1.439173729E1,3.649405456E0,-6.536681900E0,-2.301922064E0,7.832318663E0
1.440180229E1,3.830874086E0,-6.916400669E0,-2.517981799E0,8.297736247E0
1.441186729E1,3.793036461E0,-7.312450127E0,-2.717126562E0,8.674204817E0
1.442193129E1,4.113271798E0,-8.028780237E0,-3.922646136E0,9.837045781E0
1.443199629E1,4.657834686E0,-1.008512085E1,-7.196771151E0,1.323626086E1
1.444206029E1,4.234325826E0,-9.801152578E0,-4.841278213E0,1.172305770E1
1.445212529E1,4.006309851E0,-8.781967687E0,-2.683249256E0,1.001864770E1
1.446218929E1,4.432955742E0,-8.590187200E0,-2.754102599E0,1.005124340E1
1.447225429E1,4.796293829E0,-8.434838374E0,-2.860258215E0,1.011592853E1
1.448231929E1,5.056439962E0,-8.544535648E0,-2.418623571E0,1.021892433E1
1.449238329E1,5.591119301E0,-9.281893516E0,-1.505371809E0,1.093984948E1
1.450244829E1,6.146020067E0,-8.905560284E0,-1.238911561E0,1.089116470E1
1.451251229E1,6.796026379E0,-8.001402404E0,-2.095146392E0,1.070504803E1
1.452257729E1,7.597998319E0,-7.464535621E0,-3.031481938E0,1.107423827E1
1.453264129E1,8.165002236E0,-7.264190717E0,-3.314081379E0,1.142010787E1
1.454270629E1,8.409276686E0,-7.257595643E0,-3.193813509E0,1.155807396E1
1.455277029E1,8.667060544E0,-7.295307845E0,-3.017782497E0,1.172375649E1
1.456283529E1,9.025054568E0,-7.331851773E0,-2.738216591E0,1.194594033E1
1.457290029E1,8.994993448E0,-7.425338227E0,-2.475446228E0,1.192364831E1
1.458296429E1,8.529018892E0,-7.549525486E0,-2.248045380E0,1.161004765E1
1.459302929E1,7.746128756E0,-7.898273892E0,-2.015115990E0,1.124481808E1
1.460309329E1,6.850344089E0,-8.345777094E0,-1.755795338E0,1.093901397E1
1.461315829E1,6.060561256E0,-8.777792775E0,-1.462903774E0,1.076662139E1
1.462322229E1,5.411897464E0,-9.174691833E0,-1.176365064E0,1.071668975E1
1.463328729E1,4.888646215E0,-9.360987048E0,-9.555520550E-1,1.060377386E1
1.464335229E1,4.472358082E0,-9.434987655E0,-7.672810666E-1,1.046946508E1
1.465341629E1,4.104819063E0,-9.554433991E0,-5.947717961E-1,1.041587740E1
1.466348129E1,3.802002874E0,-9.671801058E0,-4.291715956E-1,1.040111291E1
1.467354529E1,3.540616839E0,-9.780547575E0,-2.607852334E-1,1.040495494E1
1.468361029E1,3.248519474E0,-9.809034040E0,-9.467928529E-2,1.033339207E1
1.469367467E1,3.026491925E0,-9.866116898E0,2.734623989E-2,1.031991588E1
1.470373967E1,2.808061582E0,-9.906256864E0,9.618673403E-2,1.029700863E1
1.471380367E1,2.598211152E0,-9.961918849E0,1.676408057E-1,1.029653494E1
1.472386867E1,2.402384976E0,-1.000773646E1,2.279443832E-1,1.029457145E1
1.473393367E1,2.222537779E0,-9.862744224E0,3.232493571E-1,1.011523049E1
1.474399767E1,2.089066896E0,-9.577618201E0,4.906480515E-1,9.815075467E0
1.475406267E1,1.912583017E0,-9.452305938E0,5.786626804E-1,9.661206542E0
1.476412667E1,1.737167425E0,-9.437258713E0,6.164100388E-1,9.615589634E0
1.477419167E1,1.560061987E0,-9.437869747E0,5.886264820E-1,9.584031506E0
1.478425567E1,1.389262479E0,-9.461582546E0,4.533545101E-1,9.573772758E0
1.479432067E1,1.213959153E0,-9.421992803E0,2.247926243E-1,9.502535289E0
1.480438567E1,9.713651919E-1,-9.199041978E0,4.366232872E-1,9.260483980E0
1.481444967E1,-9.926264720E-1,-8.309377007E0,6.615166737E0,1.066730915E1
1.482451467E1,-7.279761560E-2,-4.028069095E0,4.367501718E0,5.941860936E0
1.483457867E1,3.048613257E-1,2.700544150E0,-9.919103343E-2,2.719506940E0
1.484464367E1,-3.107663849E0,1.759353515E1,5.135466251E0,1.858932670E1
1.485470767E1,-1.022509735E1,4.413404933E1,2.206302751E1,5.038992071E1
1.486477267E1,-1.730042358E1,5.622505284E1,-6.436502724E0,5.917761224E1
1.487483667E1,-2.042724087E1,6.904843647E1,-1.150882782E1,7.292058603E1
1.488490167E1,-1.991710872E1,6.873150335E1,-1.916406570E1,7.408084899E1
1.489496667E1,-1.455897290E1,6.580060288E1,-1.545189184E1,6.914075493E1
1.490503067E1,-9.098320180E0,4.715537115E1,-7.785347201E0,4.865203068E1
1.491509567E1,-6.599910182E0,2.816122437E1,-4.329368516E0,2.924648362E1
1.492515967E1,-3.547118651E0,1.310784132E1,3.218651779E1,3.493378712E1
1.493522467E1,-1.034579148E0,7.602892438E0,3.379794494E1,3.465797757E1
1.494528867E1,3.386081654E-1,7.069664962E0,-3.997907403E0,8.128842585E0
1.495535367E1,3.507445585E0,-9.664868599E-1,1.380614388E1,1.427746057E1
1.496541767E1,4.125770221E0,-1.080861322E0,8.023920032E0,9.086998063E0
1.497548267E1,3.059933905E0,1.613781234E0,-6.952491438E-1,3.528577156E0
1.498554767E1,2.943280199E0,1.745365221E0,-2.133648992E0,4.032574376E0
1.499561167E1,3.588995240E0,4.084595883E-1,-1.421306682E0,3.881731412E0
1.500567667E1,3.840838911E0,-1.498820297E0,-1.370844042E0,4.344849734E0
1.501574067E1,3.857511369E0,-3.438191455E0,5.378829924E-1,5.195274060E0
1.502580567E1,3.909748932E0,-4.981297393E0,4.589849694E0,7.820881066E0
1.503586967E1,4.349806874E0,-4.966498091E0,2.512239833E0,7.063870901E0
1.504593467E1,4.775092410E0,-5.151374770E0,4.231840467E-1,7.036849742E0
1.505599867E1,5.083019065E0,-5.771685998E0,-5.641083028E-1,7.711527751E0
1.506606367E1,5.315264624E0,-6.422552437E0,-1.045604877E0,8.402053760E0
1.507612867E1,5.479514081E0,-7.009910511E0,-1.269729896E0,8.987554392E0
1.508619267E1,5.648087554E0,-7.474199899E0,-1.352642098E0,9.465421163E0
1.509625767E1,5.820320799E0,-7.841447727E0,-1.421048820E0,9.868323891E0
1.510632167E1,5.905406558E0,-8.044066029E0,-1.461256175E0,1.008543973E1
1.511638667E1,5.984900624E0,-8.057706998E0,-1.559079508E0,1.015757877E1
1.512645067E1,6.124806953E0,-7.983477765E0,-1.806030668E0,1.022305846E1
1.513651567E1,6.360801162E0,-7.887354217E0,-2.064983384E0,1.034090443E1
1.514657967E1,6.609631763E0,-7.768068094E0,-2.235098329E0,1.044154100E1
1.515664467E1,6.813956866E0,-7.690522905E0,-2.354958064E0,1.054134613E1
1.516670967E1,6.977604645E0,-7.653657380E0,-2.302125986E0,1.060967586E1
1.517677367E1,7.184451653E0,-7.660996805E0,-2.274882638E0,1.074626952E1
1.518683867E1,7.385244454E0,-7.673313965E0,-2.342861929E0,1.090461301E1
1.519690267E1,7.600556476E0,-7.662373824E0,-2.454948814E0,1.106829730E1
1.520696767E1,7.805883207E0,-7.652533545E0,-2.554307041E0,1.122575462E1
1.521703167E1,7.948379268E0,-7.660722570E0,-2.661918321E0,1.135558067E1
1.522709667E1,8.007722660E0,-7.645535012E0,-2.828588233E0,1.142710546E1
1.523716067E1,8.126774309E0,-7.673857756E0,-2.961252201E0,1.156293942E1
1.524722567E1,7.832870446E0,-7.866498953E0,-3.099184217E0,1.152565000E1
1.525729067E1,7.073042314E0,-8.138980372E0,-3.201745257E0,1.124820438E1
1.526735467E1,6.290407702E0,-8.427911178E0,-3.197627063E0,1.099198502E1
1.527741967E1,5.596518620E0,-8.707767690E0,-3.182139835E0,1.082923140E1
1.528748367E1,4.921791449E0,-9.000750031E0,-3.121542508E0,1.072294548E1
1.529754867E1,4.303716489E0,-9.223369904E0,-3.008051561E0,1.061324183E1
1.530761267E1,3.767145575E0,-9.360354964E0,-2.855093662E0,1.048614279E1
1.531767767E1,3.347391505E0,-9.494807594E0,-2.709091610E0,1.042571717E1
1.532774267E1,2.976819828E0,-9.636893765E0,-2.581426427E0,1.041128907E1
1.533780667E1,2.650301658E0,-9.749973069E0,-2.491579573E0,1.040644236E1
1.534787167E1,2.354090630E0,-9.798284519E0,-2.386451899E0,1.035583289E1
1.535793567E1,2.061068527E0,-9.866886392E0,-2.261730204E0,1.033048276E1
1.536800067E1,1.753012794E0,-9.990673116E0,-2.223368815E0,1.038412115E1
1.537806467E1,1.455697520E0,-9.891206131E0,-2.328436117E0,1.026531192E1
1.538812967E1,1.195240315E0,-9.492497944E0,-2.329057676E0,9.846858702E0
1.539819367E1,9.576565410E-1,-9.240322151E0,-2.221516855E0,9.551743121E0
1.540825867E1,6.809687814E-1,-9.139597430E0,-2.281119132E0,9.444546795E0
1.541832367E1,3.902094781E-1,-8.988298386E0,-2.498829244E0,9.337340033E0
1.542838767E1,1.184838484E-1,-8.868308843E0,-2.558991246E0,9.230892500E0
1.543845267E1,-7.429983383E-2,-8.860067192E0,-2.218512117E0,9.133898791E0
1.544851667E1,-8.222956914E-1,-7.846192158E0,9.123333399E0,1.206126502E1
1.545858167E1,-3.010908802E0,-1.759436545E0,3.585168120E1,3.602088608E1
1.546864567E1,-4.794665964E0,1.135899525E1,-9.869889522E-1,1.236890222E1
1.547871067E1,-7.376993448E0,2.066630545E1,-5.821336461E0,2.270251465E1
1.548877467E1,-9.928576856E0,4.294847724E1,-8.757466099E0,4.494264732E1
1.549883967E1,-1.398533882E1,6.481587563E1,-1.121858139E1,6.724986248E1
1.550890467E1,-1.918786270E1,6.912322938E1,-1.411533646E1,7.311249988E1
1.551896867E1,-2.284409156E1,6.859327518E1,-1.738962988E1,7.435919006E1
1.552903367E1,-1.885480997E1,6.465159694E1,-7.126814479E0,6.772092978E1
1.553909767E1,-1.075772373E1,4.316885179E1,1.989520973E1,4.873497465E1
1.554916267E1,-3.410826778E0,2.392774200E1,3.752367848E1,4.463403437E1
1.555922667E1,-3.111726202E0,1.812617323E1,-9.985595394E0,2.092732929E1
1.556929167E1,-6.933774501E-1,8.474632185E0,-1.500162817E0,8.634271911E0
1.557935567E1,2.384035829E0,-7.188783270E-1,2.768994581E0,3.723941980E0
1.558942067E1,2.874419879E0,-1.304847688E0,5.587662427E0,6.417701187E0
1.559948567E1,3.377136291E0,-2.463248937E0,4.983434551E0,6.504403491E0
1.560954967E1,3.981434919E0,-3.645122078E0,1.936744004E0,5.734955651E0
1.561961467E1,4.367174566E0,-4.274801715E0,2.804365557E-1,6.117580245E0
1.562967867E1,4.726401183E0,-4.905610449E0,5.428040457E-1,6.833631411E0
1.563974367E1,5.069728344E0,-5.311874408E0,6.647582531E-1,7.372927420E0
1.564980767E1,5.454652305E0,-5.784220675E0,9.314550215E-1,8.004876578E0
1.565987267E1,5.795746121E0,-6.365243291E0,1.379291514E0,8.718339311E0
1.566993667E1,6.075624268E0,-6.868840002E0,1.449108438E0,9.284077148E0
1.568000167E1,6.206686683E0,-7.159451298E0,8.127547896E-1,9.510061662E0
1.569006567E1,6.223137825E0,-7.293017491E0,1.114508539E-1,9.587907477E0
1.570013013E1,6.321256442E0,-7.319480819E0,-3.172728449E-1,9.676453096E0
1.571019513E1,6.513769585E0,-7.512308543E0,-4.695782677E-1,9.954118625E0
1.572025912E1,6.752624252E0,-7.648117143E0,-8.821776847E-1,1.024059899E1
1.573032413E1,7.056567784E0,-7.717724737E0,-1.412983171E0,1.055248527E1
1.574038813E1,7.379250473E0,-7.619904912E0,-1.590338577E0,1.072592491E1
1.575045313E1,7.835120455E0,-7.535567597E0,-1.243242009E0,1.094164258E1
1.576051713E1,8.060746965E0,-7.494382149E0,-9.817568636E-1,1.105012452E1
1.577058212E1,8.277824847E0,-7.485285051E0,-7.422344452E-1,1.118493578E1
1.578064613E1,8.760579157E0,-7.512709662E0,-5.008140206E-1,1.155159592E1
1.579071113E1,8.823654826E0,-7.565557382E0,-2.007050925E-1,1.162475056E1
1.580077613E1,8.890593751E0,-7.645200552E0,3.092919803E-1,1.172976599E1
1.581084013E1,9.102704422E0,-7.784597588E0,9.101998079E-1,1.201197948E1
1.582090513E1,9.355911080E0,-7.931375565E0,1.368626193E0,1.234151239E1
1.583096913E1,9.436247145E0,-7.955037493E0,1.338419477E0,1.241437668E1
1.584103413E1,9.691351808E0,-8.037125384E0,1.009365077E0,1.263077599E1
1.585109813E1,9.610736246E0,-8.358349192E0,6.686840737E-1,1.275442632E1
1.586116313E1,9.323981189E0,-8.614219841E0,6.323366117E-1,1.270988821E1
1.587122712E1,8.964558690E0,-8.797107882E0,7.688609111E-1,1.258346402E1
1.588129213E1,8.500864549E0,-8.954750571E0,1.106823032E0,1.239666540E1
1.589135713E1,7.861508355E0,-9.145901313E0,1.565297291E0,1.216145468E1
1.590142113E1,7.134789496E0,-9.274048306E0,1.882629193E0,1.185147610E1
1.591148613E1,6.435347314E0,-9.155548634E0,2.050285384E0,1.137723323E1
1.592155013E1,6.003084295E0,-9.171661221E0,1.896992440E0,1.112452116E1
1.593161513E1,5.643549530E0,-9.200181600E0,1.774398401E0,1.093807490E1
1.594167913E1,5.305317925E0,-9.254813890E0,1.932034657E0,1.084115936E1
1.595174413E1,5.042151706E0,-9.265683864E0,1.866087274E0,1.071253812E1
1.596180813E1,4.860298036E0,-9.188710533E0,1.363477135E0,1.048398627E1
1.597187313E1,4.673955167E0,-9.087026283E0,1.008515038E0,1.026825234E1
1.598193813E1,4.475349225E0,-9.044256824E0,9.068318848E-1,1.013161765E1
1.599200213E1,4.423240009E0,-8.923378505E0,8.336037679E-1,9.994329960E0
1.600206712E1,4.305505444E0,-8.738632218E0,6.619936895E-1,9.764184851E0
1.601213113E1,4.122124482E0,-8.574152380E0,4.734969985E-1,9.525345070E0
1.602219613E1,3.988098698E0,-8.411379345E0,2.880339892E-1,9.313388067E0
1.603226013E1,3.959309932E0,-8.119820800E0,2.629624441E-2,9.033732145E0
1.604232513E1,3.894382157E0,-7.313418426E0,1.129933494E0,8.362359186E0
1.605238913E1,3.243715109E0,-2.583938976E0,5.865057846E0,7.183128280E0
1.606245413E1,2.034893320E0,4.426797747E0,5.250782114E0,7.162963209E0
1.607251813E1,8.960236721E-1,1.331707224E1,-6.140827008E-1,1.336130117E1
1.608258313E1,-2.813359160E0,2.960771092E1,-1.215243786E0,2.976589244E1
1.609264813E1,-7.474809179E0,4.782380146E1,2.281219851E0,4.845815434E1
1.610271212E1,-1.266943697E1,6.370250028E1,3.482181813E0,6.504343753E1
1.611277713E1,-1.592965614E1,6.888340466E1,-4.390909292E0,7.083754278E1
1.612284113E1,-1.605387439E1,6.298909787E1,-6.700559474E0,6.534715626E1
1.613290613E1,-1.182870443E1,4.350625484E1,-5.636949193E0,4.543663340E1
1.614297013E1,-6.969144309E0,2.850532132E1,-5.214353961E0,2.980456010E1
1.615303512E1,-4.430017809E0,1.999026441E1,-3.429414200E0,2.076045786E1
1.616309913E1,-3.076014917E0,1.278170117E1,-1.900624584E0,1.328330255E1
1.617316413E1,-2.154176958E0,7.490761553E0,-1.045459939E0,7.864157520E0
1.618322913E1,-1.895136972E0,2.055774604E0,1.340919746E1,1.369760307E1
1.619329313E1,-3.093737536E0,-3.317402598E0,3.495607487E1,3.524916371E1
1.620335812E1,-1.206862095E0,-2.790618753E-1,-6.815529767E0,6.927181076E0
1.621342213E1,-1.606158365E0,-5.038604200E-2,-4.340101665E0,4.628041261E0
1.622348713E1,-2.985782440E0,1.055773843E0,-1.205691190E0,3.388693912E0
1.623355113E1,-3.700547835E0,2.168498982E0,9.672019744E-1,4.396808135E0
1.624361613E1,-4.102286634E0,2.583067156E0,1.447161316E0,5.059176557E0
1.625368012E1,-3.480821165E0,2.612409654E0,-2.011369679E0,4.794414268E0
1.626374513E1,-2.634436407E0,1.552664967E0,-2.838906814E0,4.172579009E0
1.627380913E1,-1.307150614E0,2.672107387E-1,-2.188814548E0,2.563387101E0
1.628387413E1,-4.901887527E-1,-1.066047401E0,-1.205552099E0,1.682289493E0
1.629393913E1,3.397562662E-1,-2.216047955E0,-1.056245275E0,2.478297185E0
1.630400312E1,1.246704145E0,-3.232426767E0,-1.323414352E0,3.708676256E0
1.631406813E1,2.118044820E0,-4.444752792E0,-1.354546682E0,5.106538745E0
1.632413213E1,2.862498575E0,-5.748450333E0,-1.201645940E0,6.533186993E0
1.633419713E1,3.476053053E0,-6.901168672E0,-1.041940939E0,7.797096562E0
1.634426113E1,3.962078589E0,-7.645463092E0,-9.562958208E-1,8.664044917E0
1.635432613E1,4.407696355E0,-8.145357345E0,-6.814701802E-1,9.286497459E0
1.636439013E1,4.783504214E0,-8.613431051E0,2.482353544E-1,9.855695198E0
1.637445513E1,5.198006315E0,-9.015144707E0,1.859184197E0,1.057112433E1
1.638452012E1,5.646669604E0,-9.094944583E0,2.561863983E0,1.100754476E1
1.639458413E1,5.942494277E0,-8.905180800E0,1.601235448E0,1.082494519E1
1.640464913E1,6.229383236E0,-8.613463796E0,-8.199733235E-2,1.063031973E1
1.641471313E1,6.447379130E0,-8.418418808E0,-1.201189418E0,1.067151952E1
1.642477813E1,6.417145516E0,-8.355667659E0,-1.294046127E0,1.061468294E1
1.643484213E1,6.316750578E0,-8.359243231E0,-1.168195335E0,1.054243642E1
1.644490713E1,6.253456807E0,-8.350140286E0,-1.145107677E0,1.049484809E1
1.645497113E1,6.209543048E0,-8.334104297E0,-1.064122571E0,1.044739566E1
1.646503613E1,6.192427078E0,-8.339487829E0,-9.851628667E-1,1.043377958E1
1.647510013E1,6.179445675E0,-8.322495235E0,-8.853256794E-1,1.040352235E1
1.648516513E1,6.158081703E0,-8.336747239E0,-7.922684848E-1,1.039475897E1
1.649523013E1,6.075981533E0,-8.359322169E0,-7.453469181E-1,1.036105018E1
1.650529413E1,5.984185510E0,-8.398667498E0,-7.411475209E-1,1.033911948E1
1.651535913E1,5.895168668E0,-8.478706525E0,-7.586904104E-1,1.035456851E1
1.652542313E1,5.800892841E0,-8.591047325E0,-7.980776205E-1,1.039679661E1
1.653548812E1,5.672883841E0,-8.672601950E0,-7.801998317E-1,1.039251401E1
1.654555213E1,5.572208236E0,-8.726681094E0,-7.521221600E-1,1.038124055E1
1.655561713E1,5.455531726E0,-8.791041981E0,-7.378385085E-1,1.037254314E1
1.656568113E1,5.361140708E0,-8.860140867E0,-7.310762036E-1,1.038163755E1
1.657574613E1,5.245567567E0,-8.954655261E0,-7.172632530E-1,1.040270621E1
1.658581013E1,5.119457159E0,-9.039831651E0,-7.199302411E-1,1.041372640E1
1.659587513E1,5.024489021E0,-9.148129687E0,-7.203722906E-1,1.046196458E1
1.660594013E1,4.938290538E0,-9.152008145E0,-7.603591327E-1,1.042708552E1
