"Time (s)","Linear Acceleration x (m/s^2)","Linear Acceleration y (m/s^2)","Linear Acceleration z (m/s^2)","Absolute acceleration (m/s^2)"
2.254550002E-2,5.715024725E-2,4.220707369E-1,5.792614353E-1,7.189949013E-1
3.260850004E-2,-1.060831100E-2,3.920113707E-1,6.671427476E-1,7.738636164E-1
4.267150001E-2,-2.528862298E-2,2.591260859E-1,5.086691701E-1,5.714281823E-1
5.273350002E-2,-7.892893285E-2,2.673972648E-1,3.941719168E-1,4.828069736E-1
6.279650005E-2,-5.026500463E-2,3.779330295E-1,3.358471102E-1,5.080878142E-1
7.285950001E-2,1.479637921E-2,3.013111156E-1,1.396958292E-1,3.324488621E-1
8.292250003E-2,-2.653714970E-1,1.072622010E-1,-9.569085360E-2,3.018011773E-1
9.298450005E-2,-2.913220248E-1,1.401080579E-1,-2.740239143E-1,4.237781207E-1
1.030475000E-1,-7.365013964E-2,-8.079127103E-2,-2.690917879E-1,2.904513090E-1
1.131105000E-1,-3.828003980E-2,-3.110172012E-1,-2.807049429E-1,4.207045589E-1
1.231735000E-1,-1.866602998E-1,-3.849420869E-1,-2.853599113E-1,5.142497028E-1
1.332355000E-1,-1.590890700E-1,-1.449866822E-1,-1.863817531E-1,2.847255312E-1
1.432985000E-1,-1.662886736E-1,5.590464413E-2,-2.278975689E-1,2.876013806E-1
1.533615000E-1,-1.046526618E-1,1.474770114E-1,-9.675387740E-3,1.810946206E-1
1.634245000E-1,8.235803246E-3,1.048595801E-1,2.014488584E-1,2.272553686E-1
1.734865000E-1,1.241771726E-1,1.232669073E-1,2.327653760E-1,2.911948161E-1
1.835495000E-1,2.579703838E-1,1.348049256E-1,2.913217324E-1,4.118123828E-1
1.936125000E-1,2.861026539E-1,2.125313786E-1,1.622304136E-1,3.915903759E-1
2.036755000E-1,2.862823827E-1,1.952429160E-1,-3.581887364E-2,3.483681825E-1
2.137375000E-1,3.636923551E-1,1.076463631E-1,-2.149284446E-1,4.359519526E-1
2.238005000E-1,3.926389962E-1,3.868371695E-2,-3.193673176E-1,5.075995418E-1
2.338635000E-1,3.781913303E-1,3.912342757E-2,-3.035517687E-1,4.865213265E-1
2.439265000E-1,3.573935151E-1,5.408352882E-2,-2.608472139E-1,4.457537680E-1
2.539885000E-1,3.603858277E-1,4.552349746E-2,-1.920050204E-1,4.108725611E-1
2.640515000E-1,2.793105282E-1,9.914304972E-2,-1.393268698E-1,3.274991483E-1
2.741145000E-1,1.517587812E-1,1.448212060E-1,-1.756790096E-1,2.736183908E-1
2.841775000E-1,6.716375023E-2,1.419569474E-1,-2.702594769E-1,3.125746777E-1
2.942395000E-1,1.957209259E-3,1.655814528E-2,-3.935076731E-1,3.938607516E-1
3.043025000E-1,-9.252444014E-2,5.551931262E-2,-3.298028433E-1,3.470058812E-1
3.143655000E-1,-9.075521886E-2,1.191943216E-1,-3.558831793E-1,3.861303321E-1
3.244285000E-1,-5.945536584E-2,9.546924412E-2,-2.939044476E-1,3.146889598E-1
3.344905000E-1,4.219920918E-2,4.824216038E-2,-3.056965274E-1,3.123434746E-1
3.445535000E-1,2.706683435E-2,-3.005819678E-2,-3.354296190E-1,3.378596424E-1
3.546165000E-1,9.223631859E-2,-1.303271279E-1,-2.278724259E-1,2.782418754E-1
3.646795000E-1,1.181557830E-1,-1.514946333E-1,-1.209607655E-1,2.270306582E-1
3.747415000E-1,3.606847666E-2,-3.469123811E-2,-8.507055581E-2,9.869861435E-2
3.848045000E-1,8.477289598E-2,2.786198258E-3,-7.469525635E-2,1.130202996E-1
3.948675000E-1,3.198551215E-1,-1.465528589E-1,-1.030185843E-1,3.666031477E-1
4.049305000E-1,6.152624497E-1,-2.628282505E-1,-2.505911976E-1,7.144386045E-1
4.149925000E-1,-5.949176475E-4,1.454430574E-1,1.008042437E-1,1.769619519E-1
4.250555000E-1,-1.531886447E-1,2.253791732E-1,1.485490984E-1,3.103697266E-1
4.351185000E-1,6.298130997E-2,4.055160999E-2,-1.436070317E-1,1.619693120E-1
4.451815001E-1,-1.073563412E-2,1.012264127E-1,2.126632333E-3,1.018163200E-1
4.552435000E-1,-1.116636195E-1,1.894837010E-1,-1.988895321E-1,2.965297335E-1
4.653065000E-1,-4.785631724E-2,9.125690997E-2,-2.204645884E-1,2.433571151E-1
4.753695000E-1,3.972495988E-2,1.900052726E-2,-2.251154637E-1,2.293819184E-1
4.854325000E-1,7.964676993E-2,3.104959220E-2,-2.444773489E-1,2.589920062E-1
4.954945000E-1,1.214269347E-2,3.259968907E-2,-5.732961059E-2,6.705869803E-2
5.055575000E-1,-1.451359324E-2,-1.054106802E-2,-9.891910136E-2,1.005323188E-1
5.156205000E-1,4.702177338E-2,-4.813983411E-2,-8.230599225E-2,1.063144730E-1
5.256835000E-1,1.485929525E-1,-6.289118975E-2,-5.418263912E-2,1.702084771E-1
5.357455000E-1,2.188885445E-1,-7.069693029E-2,-6.882523656E-2,2.400982384E-1
5.458085000E-1,2.004224528E-1,-6.370950758E-2,-1.634823024E-2,2.109391513E-1
5.558715001E-1,1.695585097E-1,-4.157107204E-2,-1.344918072E-2,1.750974663E-1
5.659345000E-1,1.457612921E-1,2.767428696E-2,-4.993054390E-2,1.565416228E-1
5.759965000E-1,1.791414383E-1,6.390714347E-2,-1.153117704E-1,2.224243294E-1
5.860595000E-1,1.126473404E-1,1.102322942E-1,-1.640056282E-1,2.274608276E-1
5.961225000E-1,-5.977988631E-2,2.393686366E-1,-8.268840015E-2,2.602082830E-1
6.061855000E-1,-1.145260874E-1,3.483522579E-1,-1.299034971E-1,3.890249849E-1
6.162475000E-1,-1.082396362E-1,2.984874952E-1,-1.973037672E-1,3.738173086E-1
6.263105000E-1,-1.739350044E-1,2.723413780E-1,-2.380249465E-1,4.013465922E-1
6.363735000E-1,-2.090204545E-1,3.365394205E-1,-3.219482785E-1,5.104890067E-1
6.464365000E-1,-2.171009045E-1,3.744010189E-1,-4.236132324E-1,6.056047361E-1
6.564985000E-1,-9.705522828E-2,2.986585262E-1,-5.042551070E-1,5.940453229E-1
6.665615000E-1,2.615803085E-2,1.880321297E-1,-5.688259095E-1,5.996692753E-1
6.766245000E-1,4.032042570E-2,9.032603323E-2,-6.587777209E-1,6.661626037E-1
6.866875000E-1,-9.304425761E-2,2.246266365E-2,-8.724279642E-1,8.776630093E-1
6.967495000E-1,-2.590893947E-1,3.314055651E-2,-1.077475784E0,1.108683758E0
7.068125000E-1,-3.798218264E-1,3.102795750E-2,-1.090877017E0,1.155525863E0
7.168755000E-1,-3.370645005E-1,-9.556923151E-2,-1.268479176E0,1.315973167E0
7.269385000E-1,-1.784280780E-1,-3.286719918E-1,-1.515011237E0,1.560487393E0
7.370005000E-1,-7.885109179E-2,-4.469632110E-1,-1.775388919E0,1.832484494E0
7.470635000E-1,9.968296699E-2,-5.810518527E-1,-2.086068444E0,2.167772936E0
7.571265000E-1,3.723139284E-1,-8.189452368E-1,-2.401645011E0,2.564602839E0
7.671895000E-1,4.865584358E-1,-1.011423297E0,-2.800000026E0,3.016573610E0
7.772515000E-1,5.373379954E-1,-1.042838340E0,-3.217495317E0,3.424692693E0
7.873145000E-1,7.184577660E-1,-1.061558493E0,-3.653935001E0,3.872251153E0
7.973775000E-1,8.026939972E-1,-1.198817203E0,-4.223357327E0,4.462984142E0
8.074405000E-1,9.259311569E-1,-1.471190156E0,-4.777659922E0,5.084071529E0
8.175025000E-1,1.193746790E0,-1.771731778E0,-5.267622095E0,5.684356378E0
8.275655000E-1,1.432379555E0,-2.025117068E0,-5.478072742E0,6.013492437E0
8.376285000E-1,1.571161171E0,-2.462598141E0,-5.483222385E0,6.212782368E0
8.476905000E-1,1.701182198E0,-3.180394441E0,-5.480871220E0,6.561164454E0
8.577535001E-1,1.903978254E0,-3.656945733E0,-5.523376384E0,6.892464869E0
8.678165000E-1,2.189813106E0,-3.858246072E0,-5.860160218E0,7.350021903E0
8.778795000E-1,2.421381703E0,-3.866161155E0,-6.165042229E0,7.669291826E0
8.879415000E-1,1.987291137E0,-3.556514834E0,-6.035810577E0,7.282110487E0
8.980045000E-1,1.246566589E0,-2.880975192E0,-5.487359875E0,6.321792840E0
9.080675000E-1,7.002238087E-1,-2.434296448E0,-5.094380790E0,5.689360967E0
9.181341250E-1,5.330877274E-2,-2.106445990E0,-4.730526102E0,5.178593799E0
9.281961250E-1,-4.122388630E-1,-1.455682463E0,-3.974635484E0,4.252843701E0
9.382591250E-1,-7.405791716E-1,-1.375814760E0,-2.415462567E0,2.876766096E0
9.483221250E-1,-1.347737015E0,-1.033267325E0,-2.790612906E-1,1.721020520E0
9.583851250E-1,-1.264473687E0,5.320381522E-2,1.600482911E0,2.040409249E0
9.684471251E-1,-1.561581678E0,2.115575248E-1,3.951005716E0,4.253673717E0
9.785101250E-1,-9.093012370E-1,5.194333094E-1,6.709840760E0,6.791067863E0
9.885731250E-1,-3.111863320E-1,8.352335331E-1,9.222746006E0,9.265716155E0
9.986361250E-1,-7.629520074E-2,1.710531018E0,1.157667072E1,1.170260835E1
1.008698125E0,2.813577846E-2,2.812878519E0,1.407567947E1,1.435401790E1
1.018761125E0,-7.562598690E-2,3.576671063E0,1.618459825E1,1.657526820E1
1.028824125E0,2.819837290E-1,3.893597461E0,1.752240962E1,1.795200420E1
1.038887125E0,7.368454320E-1,4.037509425E0,1.834645070E1,1.879991162E1
1.048949125E0,8.642969723E-1,4.710609316E0,1.878675072E1,1.938759531E1
1.059012125E0,8.639958407E-1,5.658038930E0,1.867127757E1,1.952886324E1
1.069075125E0,4.934520107E-1,6.679593698E0,1.813016454E1,1.932778655E1
1.079138125E0,4.477285384E-1,7.135177166E0,1.760128856E1,1.899780442E1
1.089200125E0,5.104722322E-1,7.104720190E0,1.682212368E1,1.826804522E1
1.099263125E0,4.747948612E-1,6.906583779E0,1.591109006E1,1.735191968E1
1.109326125E0,3.493984710E-1,6.396714175E0,1.482780215E1,1.615251522E1
1.119389125E0,5.096875358E-1,5.329465756E0,1.379440969E1,1.479691607E1
1.129451125E0,6.966917981E-1,4.357450939E0,1.252726076E1,1.328175516E1
1.139514125E0,1.053595317E0,3.679822964E0,1.117784150E1,1.181504552E1
1.149577125E0,1.825409218E0,2.874257618E0,9.790537543E0,1.036571758E1
1.159640125E0,2.572540414E0,2.385033803E0,8.257853681E0,8.972095510E0
1.169702125E0,2.456726952E0,1.403283371E0,6.147648516E0,6.767443669E0
1.179765125E0,2.029441230E0,1.160742766E0,4.349651923E0,4.938160318E0
1.189828125E0,2.146147123E0,8.748471035E-1,2.688618754E0,3.549644451E0
1.199891125E0,1.550900569E0,9.583237083E-1,9.917035621E-1,2.075368127E0
1.209953125E0,8.367289585E-1,5.873804404E-1,-6.194160193E-1,1.195327293E0
1.220016125E0,-3.581327493E-1,2.316506043E-2,-3.505519804E0,3.523842333E0
1.230079125E0,-1.595921645E0,-3.794373719E-1,-5.119362434E0,5.375761374E0
1.240142125E0,-1.078981149E0,-7.855509111E-1,-6.108964507E0,6.253058284E0
1.250204125E0,-9.049285430E-1,-1.124668661E0,-8.203360555E0,8.329399718E0
1.260267125E0,-1.302904658E0,-1.323421807E0,-9.620330358E0,9.797946827E0
1.270330125E0,-1.704948389E0,-1.358794246E0,-1.051929182E1,1.074284279E1
1.280393125E0,-1.897069769E0,-1.506318327E0,-1.108519120E1,1.134677630E1
1.290455125E0,-2.038286021E0,-1.599832116E0,-1.108904451E1,1.138775574E1
1.300518125E0,-2.260902238E0,-1.711768143E0,-1.161521323E1,1.195637936E1
1.310581125E0,-2.018744626E0,-1.942563738E0,-1.204250202E1,1.236409069E1
1.320644125E0,-2.108784876E0,-2.155333537E0,-1.180838184E1,1.218730151E1
1.330706125E0,-2.380756126E0,-2.472969055E0,-1.168892089E1,1.218254683E1
1.340769125E0,-2.307766356E0,-2.689488820E0,-1.168380458E1,1.220944000E1
1.350832125E0,-2.079067134E0,-2.936716407E0,-1.174027581E1,1.227928742E1
1.360895125E0,-1.814385608E0,-3.287211377E0,-1.177224371E1,1.235651552E1
1.370957125E0,-1.573102009E0,-3.572565148E0,-1.183181281E1,1.245911979E1
1.381020125E0,-1.389587730E0,-3.769232154E0,-1.188010847E1,1.254093467E1
1.391083125E0,-1.428595090E0,-3.923747166E0,-1.166186114E1,1.238691572E1
1.401146125E0,-1.485358690E0,-4.163590012E0,-1.164429728E1,1.245517689E1
1.411208125E0,-1.282583976E0,-4.607018581E0,-1.180669083E1,1.273842966E1
1.421271125E0,-7.871862312E-1,-4.996242877E0,-1.209208173E1,1.310727072E1
1.431334125E0,-3.760859672E-1,-5.173908770E0,-1.226935294E1,1.332095320E1
1.441397125E0,-1.601664195E-1,-5.260242909E0,-1.219702288E1,1.328394429E1
1.451459125E0,-2.429723122E-1,-5.148732998E0,-1.213017517E1,1.317989517E1
1.461522125E0,1.103985013E-1,-5.224977767E0,-1.229289383E1,1.335768764E1
1.471585125E0,1.303662311E-1,-5.190845815E0,-1.261281605E1,1.363983153E1
1.481648125E0,1.237552960E-1,-5.040329129E0,-1.326222419E1,1.418826358E1
1.491710125E0,1.205374910E-1,-4.873209566E0,-1.371453439E1,1.455510749E1
1.501773125E0,-2.319896697E-1,-4.543678325E0,-1.380372781E1,1.453415747E1
1.511836125E0,-6.324390842E-1,-4.364326387E0,-1.375693605E1,1.444647409E1
1.521899125E0,-1.126727685E0,-4.118062422E0,-1.360039440E1,1.425477748E1
1.531961125E0,-1.248658577E0,-3.908775078E0,-1.336927384E1,1.398481870E1
1.542024125E0,-7.208554168E-1,-4.056883589E0,-1.276157389E1,1.341028356E1
1.552087125E0,-8.902334668E-2,-4.535352183E0,-1.161833330E1,1.247249026E1
1.562150125E0,2.303777386E-2,-4.351909533E0,-1.008311292E1,1.098220440E1
1.572212125E0,1.076115721E-1,-4.058374337E0,-8.530224003E0,9.447047372E0
1.582275125E0,-2.072724659E-1,-3.497395975E0,-6.676723884E0,7.540118189E0
1.592338125E0,-6.876100489E-1,-2.739648867E0,-4.452216763E0,5.272638580E0
1.602401125E0,-1.181905447E0,-1.458998858E0,-2.119953058E0,2.831921454E0
1.612463125E0,-2.231763224E0,6.778048530E-2,4.488720345E-1,2.277465123E0
1.622526125E0,-3.738597422E0,1.540239633E0,3.768878397E0,5.527557615E0
1.632589125E0,-4.244976237E0,2.465862642E0,7.708567412E0,9.139054293E0
1.642652125E0,-3.422826142E0,2.480050034E0,1.262020459E1,1.330924306E1
1.652714125E0,-1.319139745E0,2.106664968E0,1.798635694E1,1.815729063E1
1.662777125E0,1.671717786E0,2.046661572E0,2.373500374E1,2.388166382E1
1.672840125E0,6.179637464E0,2.033840383E0,2.968825982E1,3.039271618E1
1.682903125E0,1.101422588E1,2.865851954E0,3.572473113E1,3.749376873E1
1.692965125E0,1.421880996E1,3.921840097E0,3.932182827E1,4.199716139E1
1.703028125E0,1.504007011E1,5.200691941E0,3.879332652E1,4.193057462E1
1.713091125E0,1.335724144E1,6.388183672E0,3.568640848E1,3.863605233E1
1.723154125E0,1.051196993E1,6.856826897E0,3.145994044E1,3.387101178E1
1.733216125E0,6.596998853E0,7.492060804E0,2.649974974E1,2.831762887E1
1.743279125E0,2.619266099E0,8.045168813E0,2.145636485E1,2.306427733E1
1.753342125E0,-9.211670648E-1,8.482363958E0,1.701463273E1,1.903409504E1
1.763405125E0,-3.547525032E0,8.934884071E0,1.387528955E1,1.688018801E1
1.773468125E0,-5.187378416E0,9.366712056E0,1.265412312E1,1.657621855E1
1.783530125E0,-5.977678143E0,8.575390236E0,1.182560306E1,1.578337231E1
1.793593125E0,-5.224157403E0,6.593723243E0,1.102741369E1,1.386985434E1
1.803656125E0,-3.930468541E0,4.667581410E0,1.097079393E1,1.255361377E1
1.813718125E0,-2.694589638E0,2.951579152E0,1.107119179E1,1.177046815E1
1.823781125E0,-1.657040982E0,1.892120101E0,1.087934114E1,1.116628707E1
1.833844125E0,-1.001462638E0,1.225847419E0,1.002027172E1,1.014452930E1
1.843907125E0,-7.578742122E-1,6.910944048E-1,8.767338538E0,8.827129196E0
1.853970125E0,-7.347718631E-1,1.884010890E-1,7.113427278E0,7.153756517E0
1.864032125E0,-7.030297413E-1,-3.121731958E-1,5.055120245E0,5.113310436E0
1.874095125E0,-6.344018483E-1,-9.873368615E-1,2.737998490E0,2.978915158E0
1.884158125E0,-3.407206182E-1,-1.715212884E0,2.632404792E-1,1.768429056E0
1.894221125E0,1.703994124E-1,-2.433845628E0,-2.189135560E0,3.277949816E0
1.904283125E0,6.808033783E-1,-3.167215987E0,-4.371319950E0,5.440881220E0
1.914346125E0,1.297776650E0,-3.901596452E0,-6.455700887E0,7.653937094E0
1.924405792E0,2.035890270E0,-4.642838332E0,-8.438753085E0,9.844457862E0
1.934468792E0,2.553160987E0,-4.941815239E0,-1.007234235E1,1.150618309E1
1.944530792E0,2.537396309E0,-4.866841655E0,-1.117619141E1,1.245117594E1
1.954593792E0,2.520280339E0,-4.640993243E0,-1.203958192E1,1.314694505E1
1.964656792E0,2.335637987E0,-4.318218168E0,-1.270799702E1,1.362334031E1
1.974719792E0,2.484972220E0,-4.002645109E0,-1.323663794E1,1.405008323E1
1.984781792E0,2.292877152E0,-3.752638633E0,-1.356426211E1,1.425934041E1
1.994844792E0,2.161493579E0,-3.852434232E0,-1.399498673E1,1.467559053E1
2.004907792E0,2.155462030E0,-3.868569624E0,-1.414630448E1,1.482328499E1
2.014970792E0,2.082765936E0,-3.546596787E0,-1.431421664E1,1.489338983E1
2.025032792E0,1.673454701E0,-3.496446680E0,-1.427944208E1,1.479621763E1
2.035095792E0,1.392122059E0,-3.528023399E0,-1.408048705E1,1.458235470E1
2.045158792E0,1.196940101E0,-3.470711330E0,-1.358881106E1,1.407601822E1
2.055221792E0,1.042671621E0,-3.582845138E0,-1.320632013E1,1.372336820E1
2.065283792E0,9.706825295E-1,-3.797826500E0,-1.246082820E1,1.306284617E1
2.075346792E0,1.189216952E0,-4.276297433E0,-1.193035359E1,1.272926917E1
2.085409792E0,1.499548129E0,-4.737050717E0,-1.136204750E1,1.240098454E1
2.095472792E0,2.068571528E0,-5.236045961E0,-1.097067231E1,1.233088871E1
2.105534792E0,2.369600223E0,-5.403284515E0,-1.084553488E1,1.234650216E1
2.115597792E0,2.436426881E0,-5.365224988E0,-1.098202526E1,1.246301304E1
2.125660792E0,2.196529072E0,-5.264097978E0,-1.102651672E1,1.241448906E1
2.135723792E0,1.748469215E0,-4.900058226E0,-1.116683002E1,1.231932660E1
2.145785792E0,1.336416659E0,-4.586949768E0,-1.114339672E1,1.212441372E1
2.155848792E0,1.156352750E0,-4.351219561E0,-1.146875217E1,1.232081733E1
2.165911792E0,6.607969838E-1,-4.080075693E0,-1.153387612E1,1.225210058E1
2.175974792E0,2.487955177E-1,-3.880502914E0,-1.186476304E1,1.248570398E1
2.186036792E0,8.152268462E-2,-3.757633909E0,-1.229853288E1,1.286002992E1
2.196099792E0,1.266712294E-1,-3.506237842E0,-1.253862190E1,1.302024533E1
2.206162792E0,-5.254495827E-1,-2.900861865E0,-1.231184699E1,1.265988441E1
2.216225792E0,-4.825109931E-1,-2.696551087E0,-1.208927039E1,1.239575182E1
2.226287792E0,-7.762175855E-1,-2.530755334E0,-1.163960781E1,1.193682145E1
2.236350792E0,-9.065827934E-1,-1.841307212E0,-1.125481190E1,1.144041501E1
2.246413792E0,-1.046037206E0,-1.502524946E0,-1.085523190E1,1.100853463E1
2.256476792E0,-1.018200805E0,-1.378149553E0,-9.374590010E0,9.529898579E0
2.266538792E0,-7.545437112E-1,-1.089949210E0,-7.831194050E0,7.942601950E0
2.276601792E0,-1.345124771E0,-5.550761819E-1,-5.533116676E0,5.721263005E0
2.286664792E0,-1.478411175E0,2.024788454E-1,-3.421450877E0,3.732696530E0
2.296727792E0,-2.242655417E0,1.309148169E0,1.504798490E-1,2.601156749E0
2.306789792E0,-3.485590739E0,2.664637276E0,5.090989405E0,6.720699944E0
2.316852792E0,-3.784662956E0,3.602423663E0,9.662786990E0,1.098501627E1
2.326915792E0,-3.143962487E0,3.776591460E0,1.486264453E1,1.565392429E1
2.336978792E0,-1.327760587E0,2.768555455E0,2.088111578E1,2.110565904E1
2.347040792E0,1.650751571E0,4.686356235E-1,2.770480007E1,2.775789162E1
2.357103792E0,3.901716027E0,-1.492985945E0,3.074218770E1,3.102474012E1
2.367166792E0,6.578733906E0,-3.467475188E0,3.447880174E1,3.527167268E1
2.377229792E0,8.661677597E0,-4.648942825E0,3.628176730E1,3.758994502E1
2.387291792E0,9.154138870E0,-4.329352144E0,3.694245355E1,3.830517489E1
2.397354792E0,8.197939017E0,-3.292516263E0,3.603350622E1,3.710067975E1
2.407417792E0,6.455234864E0,-1.914922196E0,3.321737489E1,3.389293406E1
2.417480792E0,4.473522847E0,-3.833664085E-1,2.965582882E1,2.999379202E1
2.427542792E0,2.872549939E0,8.500451151E-1,2.594239782E1,2.611478747E1
2.437605792E0,1.323693849E0,1.887065183E0,2.222396627E1,2.234318369E1
2.447668792E0,1.011760992E-1,2.664352224E0,1.875356192E1,1.894215126E1
2.457731792E0,-6.933882675E-1,2.999528951E0,1.565605907E1,1.595588126E1
2.467793792E0,-1.169913027E0,3.218450752E0,1.304605496E1,1.348801957E1
2.477856792E0,-1.240524077E0,3.215315183E0,1.085796839E1,1.139177903E1
2.487919792E0,-9.534712502E-1,2.905630562E0,8.787203869E0,9.304125333E0
2.497982792E0,-5.801646474E-1,2.367804835E0,6.775509669E0,7.200737603E0
2.508044792E0,-3.350848160E-1,1.695588751E0,4.769735191E0,5.073231400E0
2.518107792E0,-1.498725060E-1,1.003974529E0,2.742133057E0,2.923990479E0
2.528170792E0,-3.557781304E-2,4.461182883E-1,7.567460650E-1,8.791768394E-1
2.538233792E0,1.531979272E-1,-2.252971660E-1,-1.165837153E0,1.197248798E0
2.548295792E0,3.665975442E-1,-8.371903038E-1,-2.990065525E0,3.126623292E0
2.558358792E0,5.824828856E-1,-1.428165759E0,-4.692769461E0,4.939739766E0
2.568421792E0,8.571526980E-1,-2.031782016E0,-6.195069435E0,6.575844753E0
2.578484792E0,1.212779331E0,-2.585535558E0,-7.542157409E0,8.064735967E0
2.588546792E0,1.515241032E0,-2.974492343E0,-8.644837616E0,9.266972402E0
2.598609792E0,1.641073113E0,-3.170083753E0,-9.561055963E0,1.020570150E1
2.608672792E0,1.684212555E0,-3.264236205E0,-1.041381155E1,1.104261206E1
2.618735792E0,1.775864444E0,-3.343833767E0,-1.103222361E1,1.166382770E1
2.628797792E0,1.807219407E0,-3.503284121E0,-1.148198676E1,1.213981308E1
2.638860792E0,1.668644197E0,-3.548204771E0,-1.179154186E1,1.242636673E1
2.648923792E0,1.613586522E0,-3.707912696E0,-1.204272071E1,1.270351920E1
2.658986792E0,1.613611372E0,-3.936225417E0,-1.227143455E1,1.298790661E1
2.669048792E0,1.628055457E0,-4.074199826E0,-1.252047915E1,1.326695395E1
2.679111792E0,1.537023665E0,-4.253800271E0,-1.279045212E1,1.356661063E1
2.689174792E0,1.378316199E0,-4.374698763E0,-1.308026235E1,1.386113299E1
2.699237792E0,1.295801461E0,-4.495780274E0,-1.330333479E1,1.410212247E1
2.709299792E0,1.260751204E0,-4.672638959E0,-1.339555006E1,1.424302671E1
2.719362792E0,1.231972085E0,-4.673068437E0,-1.348910083E1,1.432868330E1
2.729425792E0,1.127557040E0,-4.554953219E0,-1.348914527E1,1.428201750E1
2.739488792E0,9.849758289E-1,-4.477190513E0,-1.338624129E1,1.414944763E1
2.749551792E0,9.021893417E-1,-4.288307321E0,-1.318819610E1,1.389719546E1
2.759613792E0,8.691837097E-1,-3.961930362E0,-1.292087075E1,1.354257263E1
2.769676792E0,9.644537099E-1,-3.745880713E0,-1.265595914E1,1.323386168E1
2.779739792E0,1.061627710E0,-3.550285210E0,-1.249509054E1,1.303299145E1
2.789802792E0,1.113816448E0,-3.290351916E0,-1.228325995E1,1.276500991E1
2.799864792E0,1.241479950E0,-3.127153789E0,-1.202215371E1,1.248409160E1
2.809927792E0,1.327448931E0,-3.024319392E0,-1.175029093E1,1.220565301E1
2.819990792E0,1.413346137E0,-2.904933281E0,-1.158154730E1,1.202366094E1
2.830053792E0,1.515574616E0,-2.886514844E0,-1.140746633E1,1.186419919E1
2.840115792E0,1.572094095E0,-2.908810570E0,-1.126632156E1,1.174149311E1
2.850178792E0,1.613505245E0,-2.814782372E0,-1.105159543E1,1.151799291E1
2.860241792E0,1.801872421E0,-2.818973656E0,-1.067068091E1,1.118287922E1
2.870304792E0,1.835962126E0,-2.850244858E0,-9.928766305E0,1.049166588E1
2.880366792E0,1.663089342E0,-2.626138039E0,-8.806718951E0,9.339205846E0
2.890429792E0,1.461891037E0,-2.222458549E0,-7.321162478E0,7.789471576E0
2.900492792E0,1.180189509E0,-1.833284248E0,-5.599854457E0,6.009338428E0
2.910555792E0,8.778302068E-1,-1.656465324E0,-3.646975061E0,4.100596339E0
2.920621000E0,3.005654494E-1,-9.884433009E-1,-1.546089188E0,1.859503032E0
2.930684000E0,-5.062447318E-1,4.728054191E-1,1.614148439E0,1.756503310E0
2.940747000E0,-1.478520226E0,2.022672639E0,5.417432438E0,5.968735284E0
2.950810000E0,-2.604257466E0,3.573483746E0,1.028886357E1,1.119877925E1
2.960872000E0,-3.456763381E0,4.699882306E0,1.505372569E1,1.614474416E1
2.970935000E0,-3.565172806E0,4.751889489E0,1.956102264E1,2.044320224E1
2.980998000E0,-2.877883769E0,3.546306765E0,2.382639338E1,2.426016340E1
2.991061000E0,-1.198362509E0,1.257138794E0,2.709675513E1,2.715235919E1
3.001123000E0,8.530441520E-1,-1.441257967E0,2.891014511E1,2.895861528E1
3.011186000E0,1.985365942E0,-2.586088412E0,3.002383621E1,3.020033562E1
3.021249000E0,1.795759157E0,-1.977481264E0,3.070911351E1,3.082506830E1
3.031312000E0,8.707838733E-1,-3.814168006E-1,3.041138732E1,3.042624233E1
3.041374000E0,-4.502979146E-2,1.293650855E0,2.862656918E1,2.865582006E1
3.051437000E0,-5.132424237E-1,2.259472594E0,2.586977072E1,2.597332615E1
3.061500000E0,-7.351248157E-1,2.495695136E0,2.290729528E1,2.305456744E1
3.071563000E0,-7.446065144E-1,2.660243971E0,1.962134018E1,1.981485118E1
3.081625000E0,-6.039235291E-1,2.898158112E0,1.615607203E1,1.642506339E1
3.091688000E0,-5.719109005E-1,3.254120229E0,1.279920891E1,1.321877941E1
3.101751000E0,-5.219731937E-1,3.509029888E0,9.593319730E0,1.022827112E1
3.111814000E0,-4.767813065E-1,3.552863832E0,6.728769951E0,7.624074165E0
3.121876000E0,-5.445624496E-1,3.469741861E0,4.241923991E0,5.507229430E0
3.131939000E0,-6.301289955E-1,3.226062073E0,1.932895367E0,3.813216955E0
3.142002000E0,-4.363160160E-1,2.579150691E0,-2.047753394E-1,2.623799324E0
3.152065000E0,-3.478581682E-2,1.711486746E0,-2.118463773E0,2.723653005E0
3.162128000E0,3.335493006E-1,8.544825670E-1,-3.778129862E0,3.887886424E0
3.172190000E0,7.044998045E-1,8.196890026E-2,-5.267408672E0,5.314944308E0
3.182253000E0,9.638658455E-1,-5.840924048E-1,-6.521913003E0,6.618576170E0
3.192316000E0,1.064844336E0,-1.001211720E0,-7.516013339E0,7.656812318E0
3.202379000E0,1.057133467E0,-1.280747512E0,-8.302740417E0,8.467192202E0
3.212441000E0,1.055603470E0,-1.566563944E0,-9.015648152E0,9.211424042E0
3.222504000E0,9.642671838E-1,-1.654139594E0,-9.588177103E0,9.777480717E0
3.232567000E0,7.044139235E-1,-1.645732467E0,-9.964729021E0,1.012425102E1
3.242630000E0,4.025938077E-1,-1.576892612E0,-1.028147737E1,1.040948841E1
3.252692000E0,1.910471734E-1,-1.557185888E0,-1.055319046E1,1.066916847E1
3.262755000E0,-4.728687152E-2,-1.551372147E0,-1.075243083E1,1.086387409E1
3.272818000E0,-2.442219718E-1,-1.520411433E0,-1.083225585E1,1.094116365E1
3.282881000E0,-3.579344556E-1,-1.463741388E0,-1.082165368E1,1.092606261E1
3.292943000E0,-3.765177841E-1,-1.388105022E0,-1.079333327E1,1.088873934E1
3.303006000E0,-3.849488112E-1,-1.357570424E0,-1.076460707E1,1.085670062E1
3.313069000E0,-3.616980160E-1,-1.372514737E0,-1.050052342E1,1.059601880E1
3.323132000E0,-1.974537848E-1,-1.420630890E0,-1.013730842E1,1.023827144E1
3.333194000E0,-7.919483498E-2,-1.394894224E0,-9.576557516E0,9.677936535E0
3.343257000E0,5.921073295E-3,-1.257940008E0,-8.953771747E0,9.041707616E0
3.353320000E0,2.266825541E-1,-1.201543321E0,-8.371341121E0,8.460168053E0
3.363383000E0,5.073640716E-1,-1.274430034E0,-7.830517527E0,7.949754396E0
3.373445000E0,6.860306429E-1,-1.284131734E0,-7.406717768E0,7.548450202E0
3.383508000E0,7.436602888E-1,-1.405216314E0,-7.117458349E0,7.292864791E0
3.393571000E0,6.977083366E-1,-1.448947202E0,-7.059041156E0,7.239910701E0
3.403634000E0,7.021725395E-1,-1.492363070E0,-7.175490210E0,7.362598289E0
3.413696000E0,6.512201947E-1,-1.561090512E0,-7.369751671E0,7.561370975E0
3.423759000E0,4.932321188E-1,-1.433762713E0,-7.537006597E0,7.688005065E0
3.433822000E0,4.005672359E-1,-1.346185602E0,-7.661217245E0,7.788897191E0
3.443885000E0,5.130317046E-1,-1.222463051E0,-7.680883770E0,7.794459117E0
3.453947000E0,7.909511071E-1,-1.135100240E0,-7.513635861E0,7.639946339E0
3.464010000E0,9.876664252E-1,-1.043676100E0,-7.272501365E0,7.413097927E0
3.474073000E0,1.090362755E0,-1.016436261E0,-7.022873788E0,7.179330739E0
3.484136000E0,1.155794340E0,-1.029439153E0,-6.674190286E0,6.851308014E0
3.494198000E0,1.196673175E0,-1.112157520E0,-6.134595192E0,6.348399736E0
3.504261000E0,1.150340862E0,-1.132493113E0,-5.493881859E0,5.726129813E0
3.514324000E0,1.122333722E0,-9.901246677E-1,-4.756494171E0,4.986403177E0
3.524387000E0,9.658981915E-1,-4.154478881E-1,-3.734710777E0,3.879899593E0
3.534450000E0,5.097013499E-1,5.862263462E-1,-2.243205348E0,2.373905438E0
3.544512000E0,-6.275531508E-2,1.392488388E0,-3.830201072E-1,1.445567896E0
3.554575000E0,-5.389308500E-1,1.941588715E0,1.877474872E0,2.754110582E0
3.564638000E0,-1.151194044E0,2.319169011E0,4.415635997E0,5.118753157E0
3.574701000E0,-1.879180798E0,2.724634679E0,7.138590186E0,7.868571945E0
3.584763000E0,-2.391195452E0,2.883041306E0,9.825787482E0,1.051550486E1
3.594826000E0,-2.543072493E0,2.590917628E0,1.242877376E1,1.294814617E1
3.604889000E0,-2.339425228E0,2.068323314E0,1.474653754E1,1.507352783E1
3.614952000E0,-1.947655494E0,1.541840601E0,1.670001043E1,1.688374907E1
3.625014000E0,-1.291084512E0,8.967833716E-1,1.818674804E1,1.825455899E1
3.635077000E0,-6.906160294E-1,4.632748961E-1,1.914600365E1,1.916405567E1
3.645140000E0,-4.644510636E-1,5.935736650E-1,1.938724573E1,1.940189016E1
3.655203000E0,-6.795972439E-1,1.177657884E0,1.906609794E1,1.911451860E1
3.665265000E0,-1.416711063E0,2.154157516E0,1.832989139E1,1.851033179E1
3.675328000E0,-2.169647521E0,2.953818635E0,1.740017241E1,1.778196881E1
3.685391000E0,-2.741176744E0,3.405928273E0,1.654634093E1,1.711419865E1
3.695454000E0,-2.932473082E0,3.639679490E0,1.553986203E1,1.622756843E1
3.705516000E0,-2.594444376E0,3.730432662E0,1.436524997E1,1.506677391E1
3.715579000E0,-1.957832572E0,3.807301328E0,1.321497635E1,1.389115732E1
3.725642000E0,-1.244236912E0,3.759198917E0,1.184374580E1,1.248815505E1
3.735705000E0,-6.031736237E-1,3.508346641E0,1.022041139E1,1.082262092E1
3.745767000E0,-1.731834179E-1,3.197309559E0,8.286642448E0,8.883761814E0
3.755830000E0,-6.700382888E-2,2.881485946E0,6.153109816E0,6.794719360E0
3.765893000E0,-1.667295536E-1,2.439123032E0,4.003808997E0,4.691226534E0
3.775956000E0,-1.894100992E-1,1.896298229E0,1.979332784E0,2.747650165E0
3.786019000E0,7.341091543E-2,1.039499872E0,7.023383081E-2,1.044452937E0
3.796081000E0,5.143843849E-1,9.877935290E-2,-1.630292602E0,1.712367549E0
3.806144000E0,9.962069415E-1,-7.832216728E-1,-3.102384691E0,3.351216977E0
3.816207000E0,1.427340716E0,-1.550079328E0,-4.380726365E0,4.861153251E0
3.826270000E0,1.773445889E0,-2.265735547E0,-5.627085525E0,6.320028433E0
3.836332000E0,2.043290360E0,-2.818157093E0,-6.718774720E0,7.566966277E0
3.846395000E0,2.156808936E0,-3.152007963E0,-7.591127840E0,8.497776231E0
3.856458000E0,2.068118661E0,-3.310342669E0,-8.323981013E0,9.193701283E0
3.866521000E0,1.820636720E0,-3.265345129E0,-8.964762758E0,9.713092617E0
3.876583000E0,1.464563799E0,-3.141759548E0,-9.475438108E0,1.008957519E1
3.886646000E0,1.099492597E0,-2.932952846E0,-9.846215315E0,1.033242723E1
3.896709000E0,8.361863369E-1,-2.733327734E0,-1.008678380E1,1.048396373E1
3.906772000E0,7.157652694E-1,-2.577446812E0,-1.020370239E1,1.054851148E1
3.916834000E0,7.429226625E-1,-2.545212574E0,-1.014109742E1,1.048197968E1
3.926893292E0,7.186558405E-1,-2.504940169E0,-9.833577143E0,1.017302467E1
3.936956292E0,7.414316225E-1,-2.532529671E0,-9.511708387E0,9.870968738E0
3.947019292E0,8.378369328E-1,-2.595830751E0,-9.288305572E0,9.680543808E0
3.957081292E0,9.000098652E-1,-2.746804982E0,-8.977693291E0,9.431539227E0
3.967144292E0,8.668965713E-1,-2.833420957E0,-8.585829270E0,9.082744532E0
3.977207292E0,8.704798181E-1,-2.797838018E0,-8.216341374E0,8.723181659E0
3.987270292E0,9.395737343E-1,-2.769012415E0,-7.854019241E0,8.380682955E0
3.997332292E0,1.044620864E0,-2.699271504E0,-7.482358519E0,8.022654699E0
4.007395292E0,1.111139885E0,-2.656864572E0,-7.079175459E0,7.642531411E0
4.017458292E0,1.229743419E0,-2.653298063E0,-6.730536979E0,7.338418598E0
4.027521292E0,1.298780325E0,-2.692406288E0,-6.406946218E0,7.069995883E0
4.037583292E0,1.280575311E0,-2.719624200E0,-6.150315431E0,6.845626985E0
4.047646292E0,1.248115224E0,-2.693959893E0,-5.880347146E0,6.587389018E0
4.057709292E0,1.280025673E0,-2.695328726E0,-5.530190145E0,6.283809808E0
4.067772292E0,1.373690759E0,-2.582174286E0,-5.240530776E0,6.001484246E0
4.077835292E0,1.400156718E0,-2.294415555E0,-4.806874951E0,5.507343131E0
4.087897292E0,1.287549285E0,-1.899137929E0,-4.252080604E0,4.831635076E0
4.097960292E0,7.944027916E-1,-1.327980443E0,-3.549698442E0,3.872333519E0
4.108023292E0,3.238717201E-1,-9.695168871E-1,-2.617861013E0,2.810347339E0
4.118086292E0,1.494168252E-2,-8.579657534E-1,-1.469983583E0,1.702110520E0
4.128148292E0,-3.109777325E-1,-4.260263783E-1,-3.716174519E-1,6.452171384E-1
4.138211292E0,-8.943262254E-1,6.499548572E-1,8.775817001E-1,1.411527667E0
4.148274292E0,-1.633588823E0,1.759308491E0,2.311131867E0,3.332432943E0
4.158337292E0,-1.895503739E0,2.652456064E0,3.922644382E0,5.100548651E0
4.168399292E0,-1.773003547E0,3.240605852E0,5.809957779E0,6.884814977E0
4.178462292E0,-1.372750526E0,3.653630946E0,7.441701075E0,8.403117159E0
4.188525292E0,-7.838362151E-1,4.081194558E0,8.582095238E0,9.535350382E0
4.198588292E0,-3.559447943E-1,4.655029192E0,9.348138376E0,1.044909970E1
4.208650292E0,-2.331606477E-1,5.188485294E0,9.832722280E0,1.112012459E1
4.218713292E0,-6.617600202E-1,5.855470167E0,9.853755884E0,1.148133103E1
4.228776292E0,-1.593877312E0,6.770307401E0,9.470914117E0,1.175056260E1
4.238839292E0,-2.567769670E0,7.494592649E0,9.359727557E0,1.226241656E1
4.248901292E0,-3.251747137E0,7.997241526E0,9.536280141E0,1.286352869E1
4.258964292E0,-3.623356987E0,8.267805642E0,9.988032514E0,1.346276790E1
4.269027292E0,-3.368890255E0,8.126516447E0,1.017841435E1,1.345324532E1
4.279090292E0,-2.622199354E0,7.958412505E0,1.031721087E1,1.329124145E1
4.289152292E0,-1.748548737E0,7.686732740E0,1.036159124E1,1.301944146E1
4.299215292E0,-1.111748727E0,7.304820680E0,1.011837280E1,1.252908051E1
4.309278292E0,-8.487767078E-1,6.579381192E0,9.643496441E0,1.170494350E1
4.319341292E0,-6.246481079E-1,5.384945893E0,8.790052632E0,1.032728681E1
4.329403292E0,-4.961168061E-1,4.129998928E0,7.333977821E0,8.431503644E0
4.339466292E0,-4.640417585E-1,3.147734526E0,5.562515307E0,6.408209106E0
4.349529292E0,-4.163820904E-1,2.087711511E0,3.657942683E0,4.232311197E0
4.359592292E0,-3.451418442E-1,1.343307749E0,1.735617328E0,2.221703425E0
4.369655292E0,-2.619808428E-1,8.892053801E-1,-4.029608667E-2,9.278706508E-1
4.379717292E0,-5.485360712E-2,3.000083560E-1,-1.516698743E0,1.547058179E0
4.389780292E0,2.786454074E-1,-2.870713913E-1,-2.745751898E0,2.774744445E0
4.399843292E0,5.162249422E-1,-8.213355786E-1,-3.803198630E0,3.924971355E0
4.409906292E0,5.391593300E-1,-1.445452175E0,-4.693955861E0,4.940976259E0
4.419968292E0,3.643771371E-1,-1.985416812E0,-5.411601595E0,5.775818768E0
4.430031292E0,1.432768102E-1,-2.568125766E0,-6.008866022E0,6.536227434E0
4.440094292E0,-2.720446318E-2,-2.964352394E0,-6.482081770E0,7.127798347E0
4.450157292E0,-1.810794979E-1,-3.302198375E0,-6.813980255E0,7.574142249E0
4.460219292E0,-1.838323671E-1,-3.635142050E0,-6.948355118E0,7.843958880E0
4.470282292E0,-1.335015813E-1,-3.866761664E0,-6.977557282E0,7.978469407E0
4.480345292E0,-3.035523534E-2,-4.014728088E0,-6.968936148E0,8.042700671E0
4.490408292E0,6.839093462E-2,-4.175251699E0,-6.875554360E0,8.044293121E0
4.500470292E0,1.940011136E-1,-4.273592803E0,-6.851717016E0,8.077577480E0
4.510533292E0,1.646996927E-1,-4.321753980E0,-6.853697467E0,8.104187339E0
4.520596292E0,1.262204821E-1,-4.474152300E0,-6.877860501E0,8.206030434E0
4.530659292E0,8.940261170E-2,-4.450982416E0,-6.946266493E0,8.250445774E0
4.540721292E0,7.101794243E-2,-4.403250425E0,-7.056592342E0,8.318001763E0
4.550784292E0,5.477437735E-2,-4.355209993E0,-7.161337609E0,8.381862005E0
4.560847292E0,6.683762178E-2,-4.259938093E0,-7.279311032E0,8.434447755E0
4.570910292E0,2.047250716E-1,-4.174521382E0,-7.419076443E0,8.515352981E0
4.580973292E0,4.812704332E-1,-4.107902300E0,-7.378466946E0,8.458620278E0
4.591035292E0,7.446224481E-1,-4.017037153E0,-7.319508301E0,8.382496755E0
4.601098292E0,1.071226280E0,-3.833141929E0,-7.396414974E0,8.399253375E0
4.611161292E0,1.286428666E0,-3.603179708E0,-7.413591755E0,8.342610229E0
4.621224292E0,1.355775913E0,-3.368742905E0,-7.263925254E0,8.121032396E0
4.631286292E0,1.401996106E0,-3.191648870E0,-7.160550574E0,7.964025371E0
4.641349292E0,1.452734882E0,-3.055213448E0,-7.084799895E0,7.851060909E0
4.651412292E0,1.433381183E0,-2.829360065E0,-6.892100810E0,7.586890903E0
4.661475292E0,1.361565388E0,-2.510676287E0,-6.549865617E0,7.145494757E0
4.671537292E0,1.167272790E0,-2.083294525E0,-5.999903410E0,6.457668525E0
4.681600292E0,9.655228002E-1,-1.690224223E0,-5.208065280E0,5.559949295E0
4.691663292E0,8.698804785E-1,-1.397616688E0,-4.053419698E0,4.374955509E0
4.701726292E0,1.017847194E0,-1.278969666E0,-2.646458575E0,3.110549679E0
4.711788292E0,1.400172798E0,-1.008707265E0,-1.331711551E0,2.179777481E0
4.721851292E0,1.543416279E0,-5.166956431E-1,4.696366668E-2,1.628285535E0
4.731914292E0,1.202992115E0,4.349714488E-1,1.667658648E0,2.101779141E0
4.741977292E0,5.982462116E-1,1.753081207E0,3.359583827E0,3.836404011E0
4.752039292E0,-2.372592170E-1,3.065273582E0,5.272593983E0,6.103477810E0
4.762102292E0,-1.093805742E0,4.256903973E0,7.172557831E0,8.412088223E0
4.772165292E0,-1.385626388E0,5.107040597E0,9.007388960E0,1.044676409E1
4.782228292E0,-1.235495033E0,5.727154189E0,1.066734916E1,1.217041829E1
4.792290292E0,-1.080372494E0,6.374192455E0,1.171963514E1,1.338459495E1
4.802353292E0,-9.483166373E-1,6.887652249E0,1.212539332E1,1.397727517E1
4.812416292E0,-1.116916861E0,7.749481550E0,1.218888823E1,1.448692389E1
4.822479292E0,-1.756245281E0,8.827242678E0,1.235164899E1,1.528292654E1
4.832542292E0,-2.502920833E0,9.655032998E0,1.278821614E1,1.621797604E1
4.842604292E0,-2.824879929E0,1.006561103E1,1.322602525E1,1.685895062E1
4.852667292E0,-2.423922026E0,1.008887476E1,1.332667220E1,1.688967092E1
4.862730292E0,-1.420799436E0,9.972073123E0,1.337116132E1,1.674063525E1
4.872793292E0,-3.258181120E-1,9.768664863E0,1.339842923E1,1.658465786E1
4.882855292E0,6.031848796E-1,9.211129342E0,1.330497435E1,1.619355051E1
4.892918292E0,1.330074769E0,8.294892869E0,1.298104562E1,1.546227318E1
4.902981292E0,1.858371727E0,6.930093094E0,1.220103173E1,1.415432482E1
4.913044292E0,2.174079710E0,5.563136866E0,1.073487164E1,1.228464829E1
4.923109750E0,2.304882655E0,4.482886578E0,8.686908917E0,1.004346268E1
4.933172750E0,2.188357588E0,3.716913022E0,6.370040347E0,7.692968567E0
4.943235750E0,1.888318680E0,3.086654511E0,3.925341117E0,5.338678338E0
4.953298750E0,1.606720283E0,2.377690138E0,1.586436145E0,3.278984615E0
4.963360750E0,1.357812352E0,1.530122196E0,-5.664829302E-1,2.122694332E0
4.973423750E0,1.128772383E0,5.919434613E-1,-2.437355127E0,2.750495259E0
4.983486750E0,9.406801736E-1,-4.690420049E-1,-3.997692225E0,4.133572634E0
4.993549750E0,7.243304171E-1,-1.714340479E0,-5.149860926E0,5.475827371E0
5.003612750E0,4.951766835E-1,-2.906131668E0,-6.019861127E0,6.702949291E0
5.013674750E0,2.478839002E-1,-3.964422153E0,-6.675167940E0,7.767622317E0
5.023737750E0,-4.141714409E-2,-4.647845303E0,-7.166670855E0,8.541975912E0
5.033800750E0,-4.129262763E-1,-5.162590899E0,-7.606083264E0,9.201921295E0
5.043863750E0,-6.331283247E-1,-5.769136028E0,-8.046121910E0,9.920879990E0
5.053925750E0,-7.216871832E-1,-6.342260810E0,-8.454017826E0,1.059318281E1
5.063988750E0,-9.040298259E-1,-6.633554476E0,-8.792789129E0,1.105144586E1
5.074051750E0,-1.131408601E0,-6.704844899E0,-9.033199155E0,1.130635739E1
5.084114750E0,-1.231595378E0,-6.605307162E0,-9.084281015E0,1.129916242E1
5.094176750E0,-1.202083019E0,-6.333475369E0,-9.063684783E0,1.112242310E1
5.104239750E0,-1.169384805E0,-6.189283031E0,-8.933539796E0,1.093081966E1
5.114302750E0,-1.103805065E0,-5.990153763E0,-8.736067629E0,1.064984532E1
5.124365750E0,-9.653579088E-1,-5.860685298E0,-8.361434183E0,1.025637020E1
5.134427750E0,-8.782614389E-1,-5.804513437E0,-7.792670839E0,9.756507479E0
5.144490750E0,-7.443577154E-1,-5.715872571E0,-7.204160863E0,9.226331957E0
5.154553750E0,-5.519775961E-1,-5.625592731E0,-6.846889554E0,8.878731295E0
5.164616750E0,-3.573183784E-1,-5.687296643E0,-6.702113664E0,8.797235196E0
5.174678750E0,-2.151171635E-1,-5.763108718E0,-6.723116863E0,8.857764833E0
5.184741750E0,-1.784864040E-1,-5.807806004E0,-6.943917666E0,9.054306187E0
5.194804750E0,-1.308731025E-1,-5.838275844E0,-7.279313956E0,9.332256119E0
5.204867750E0,-1.595782627E-1,-5.852840089E0,-7.720129697E0,9.689252028E0
5.214930750E0,-1.231294978E-1,-5.843109738E0,-8.081630296E0,9.973456799E0
5.224992750E0,-7.907657504E-2,-5.827568423E0,-8.173432167E0,1.003851584E1
5.235055750E0,1.374285713E-2,-5.581098928E0,-8.192096479E0,9.912582854E0
5.245118750E0,9.798047706E-2,-5.137616857E0,-7.870541718E0,9.399475202E0
5.255181750E0,2.765178980E-1,-4.759927656E0,-7.448955131E0,8.844224442E0
5.265243750E0,5.777424748E-1,-4.416753985E0,-7.148701776E0,8.422911564E0
5.275306750E0,7.937495115E-1,-4.256711599E0,-6.651128283E0,7.936443747E0
5.285369750E0,7.941195671E-1,-4.005807576E0,-6.007393109E0,7.264013504E0
5.295432750E0,5.148868069E-1,-3.359917703E0,-5.003936058E0,6.049258754E0
5.305494750E0,3.094030774E-1,-2.550621541E0,-3.691614459E0,4.497712510E0
5.315557750E0,5.046683590E-1,-1.916547722E0,-1.773829467E0,2.659758692E0
5.325620750E0,7.786791171E-1,-1.007466486E0,4.363057834E-1,1.345991317E0
5.335683750E0,6.625990225E-1,3.897584385E-1,2.596057330E0,2.707482736E0
5.345745750E0,3.270313362E-1,2.447780128E0,4.613141493E0,5.232556878E0
5.355808750E0,-1.130535758E-1,4.458911240E0,6.684524070E0,8.036014721E0
5.365871750E0,-4.620678847E-1,6.126797930E0,8.967673502E0,1.087061763E1
5.375934750E0,-2.517468998E-1,7.110993083E0,1.066223285E1,1.281845578E1
5.385997750E0,2.531468694E-1,7.671672651E0,1.203863116E1,1.427750976E1
5.396059750E0,6.772031745E-1,8.147430768E0,1.335352261E1,1.565745185E1
5.406122750E0,8.000935212E-1,8.651763058E0,1.381559649E1,1.632065746E1
5.416185750E0,3.067592588E-1,9.236591628E0,1.386574572E1,1.666336192E1
5.426248750E0,-9.358027187E-1,9.794403722E0,1.394721264E1,1.706841561E1
5.436310750E0,-2.359669166E0,1.033187452E1,1.386892076E1,1.745458773E1
5.446373750E0,-3.148216921E0,1.052597635E1,1.386975574E1,1.769399820E1
5.456436750E0,-3.463417513E0,1.045061159E1,1.396592256E1,1.778363114E1
5.466499750E0,-3.319860182E0,1.025683019E1,1.364466717E1,1.738968026E1
5.476561750E0,-2.980552690E0,9.845296133E0,1.311011823E1,1.666399563E1
5.486624750E0,-2.853469890E0,9.269150094E0,1.234719107E1,1.570071849E1
5.496687750E0,-2.603937038E0,8.452859493E0,1.144442658E1,1.446396286E1
5.506750750E0,-2.212756118E0,7.356357454E0,1.061843370E1,1.310585437E1
5.516812750E0,-1.813794455E0,6.337778335E0,9.741013965E0,1.176199973E1
5.526875750E0,-1.424879331E0,5.355248469E0,9.008329192E0,1.057633973E1
5.536938750E0,-8.957248794E-1,4.377855383E0,8.063360671E0,9.218770315E0
5.547001750E0,-3.967825159E-1,3.505015190E0,6.922146728E0,7.769085092E0
5.557063750E0,-1.419727349E-1,2.593227863E0,5.591901074E0,6.165577396E0
5.567126750E0,5.256109659E-2,1.626270010E0,4.083616474E0,4.395843528E0
5.577189750E0,6.563220365E-1,2.623405927E-1,2.330011357E0,2.434858133E0
5.587252750E0,3.760339124E0,3.071513146E-1,2.078863505E0,4.307686818E0
5.597315750E0,4.978140482E0,2.037972464E0,4.929179406E-1,5.401683304E0
5.607377750E0,4.801990479E0,-2.272686132E0,-2.500309759E0,5.871606569E0
5.617440750E0,2.766665635E0,-1.122117229E0,-4.889425356E0,5.728880006E0
5.627503750E0,1.386995513E0,-2.268115071E0,-7.591076385E0,8.043167486E0
5.637566750E0,2.720814693E-1,-3.373431203E0,-9.341887118E0,9.936041532E0
5.647628750E0,-6.480439872E-1,-3.890674145E0,-1.041387704E1,1.113580448E1
5.657691750E0,-7.476700169E-1,-3.935876338E0,-1.141045075E1,1.209332541E1
5.667754750E0,-3.819608840E-1,-4.165588298E0,-1.193600668E1,1.264777749E1
5.677817750E0,-3.176651931E-1,-4.366716437E0,-1.189945924E1,1.267936331E1
5.687879750E0,-4.266100766E-1,-4.538151537E0,-1.186285450E1,1.270842762E1
5.697942750E0,-7.347723748E-1,-4.766612193E0,-1.188876469E1,1.282977817E1
5.708005750E0,-8.194577453E-1,-5.079404317E0,-1.184529298E1,1.291444249E1
5.718068750E0,-3.172323529E-1,-4.988564898E0,-1.060457930E1,1.172363077E1
5.728130750E0,4.135558753E-1,-4.904304474E0,-8.812980149E0,1.009414929E1
5.738193750E0,8.206802519E-1,-4.912397313E0,-8.484019890E0,9.837873598E0
5.748256750E0,1.110946854E0,-4.321177444E0,-7.923236825E0,9.093099538E0
5.758319750E0,1.409682564E0,-4.070883285E0,-7.771967018E0,8.886099649E0
5.768382750E0,1.404741228E0,-4.177219287E0,-8.057844992E0,9.184297731E0
5.778444750E0,1.034316169E0,-4.419423531E0,-8.793349877E0,9.895661491E0
5.788507750E0,4.990823677E-1,-4.603162343E0,-9.507143465E0,1.057468504E1
5.798570750E0,5.319453277E-2,-4.839754429E0,-1.011649584E1,1.121470199E1
5.808633750E0,-1.999127948E-1,-5.081473646E0,-1.056567544E1,1.172581925E1
5.818695750E0,-3.295859116E-1,-5.216926736E0,-1.069505795E1,1.190416801E1
5.828758750E0,-2.364547498E-1,-5.085491853E0,-1.088227878E1,1.201424694E1
5.838821750E0,-2.388134435E-2,-5.038597183E0,-1.096913215E1,1.207103525E1
5.848884750E0,3.239923190E-1,-4.963028353E0,-1.096451402E1,1.203981682E1
5.858946750E0,6.654518791E-1,-4.969887722E0,-1.072664929E1,1.184076075E1
5.869009750E0,9.018207479E-1,-5.005886689E0,-1.025880421E1,1.145055658E1
5.879072750E0,9.794124225E-1,-4.959976691E0,-9.556424384E0,1.081137662E1
5.889135750E0,9.251840289E-1,-4.814767522E0,-8.756111884E0,1.003531002E1
5.899197750E0,5.816430793E-1,-4.327826605E0,-7.704166213E0,8.855651802E0
5.909260750E0,-1.578675136E-1,-3.417841390E0,-6.336136436E0,7.200915696E0
5.919323750E0,-1.152928035E0,-2.231426716E0,-4.808175956E0,5.424671812E0
5.929383375E0,-2.428888358E0,-9.466437489E-1,-2.798868005E0,3.824826160E0
5.939446375E0,-3.678148906E0,-4.357257396E-2,-4.293078357E-1,3.703374564E0
5.949508375E0,-4.257869056E0,2.281753117E-1,2.365552488E0,4.876202564E0
5.959571375E0,-3.693572107E0,5.446333471E-1,5.354149777E0,6.527328721E0
5.969634375E0,-2.394279566E0,8.635282096E-1,8.348727599E0,8.728087312E0
5.979697375E0,-8.672624608E-1,1.247599792E0,1.098044885E1,1.108507584E1
5.989759375E0,1.358740159E-1,2.126173326E0,1.329571704E1,1.346533202E1
5.999822375E0,2.437503938E-1,3.196561115E0,1.510673655E1,1.544315079E1
6.009885375E0,5.068512708E-3,3.886199271E0,1.639410282E1,1.684841766E1
6.019948375E0,-1.027332401E-1,4.501546798E0,1.730283731E1,1.787911231E1
6.030010375E0,-1.065293987E-1,4.785924962E0,1.784097294E1,1.847205299E1
6.040073375E0,1.084864618E-1,4.809422875E0,1.823761999E1,1.886141830E1
6.050136375E0,5.272500135E-1,4.804742763E0,1.847966899E1,1.910135366E1
6.060199375E0,5.711345364E-1,4.829674706E0,1.846931942E1,1.909889295E1
6.070261375E0,2.030407628E-1,4.841546600E0,1.857361971E1,1.919534183E1
6.080324375E0,-3.682291366E-1,4.751187530E0,1.865211741E1,1.925125605E1
6.090387375E0,-1.069445803E0,4.556272058E0,1.882097798E1,1.939413678E1
6.100450375E0,-1.377754866E0,3.840977198E0,1.877155614E1,1.920996185E1
6.110513375E0,-1.185656729E0,3.093741044E0,1.843458695E1,1.872994959E1
6.120575375E0,-9.267448700E-1,2.689723293E0,1.778572143E1,1.801181152E1
6.130638375E0,-6.557564646E-1,2.789226239E0,1.733894972E1,1.757409960E1
6.140701375E0,-2.994760401E-1,3.534569064E0,1.534455568E1,1.574923024E1
6.150764375E0,-9.174405612E-2,4.098433611E0,1.325694766E1,1.387631926E1
6.160826375E0,2.821174110E-1,3.926410281E0,1.081234140E1,1.150665088E1
6.170889375E0,7.268067129E-1,3.463859562E0,7.973778988E0,8.723974004E0
6.180952375E0,1.111026303E0,3.035708891E0,5.016240939E0,5.967627759E0
6.191015375E0,1.491269202E0,2.432472409E0,2.448174230E0,3.759569512E0
6.201077375E0,1.916883790E0,1.763065035E0,3.575016886E-1,2.628811374E0
6.211140375E0,2.802756988E0,6.140801427E-1,-4.092641652E-2,2.869532389E0
6.221203375E0,3.382066371E0,-5.139635316E-1,-5.651626289E-2,3.421363111E0
6.231266375E0,2.830641775E0,-9.069563574E-1,-1.351013210E0,3.265017517E0
6.241328375E0,2.018701503E0,-1.976831346E0,-3.042712101E0,4.152242148E0
6.251391375E0,1.384042962E0,-2.323246713E0,-5.921173575E0,6.509481294E0
6.261454375E0,8.125088411E-1,-3.098723457E0,-7.892662320E0,8.518003062E0
6.271517375E0,3.820512235E-1,-3.924221668E0,-9.339195060E0,1.013735879E1
6.281580375E0,1.802393261E-1,-4.428363047E0,-1.022656500E1,1.114565015E1
6.291642375E0,-8.359289132E-2,-4.462909274E0,-1.073629485E1,1.162723416E1
6.301705375E0,-3.559067874E-1,-4.292727232E0,-1.117534123E1,1.197674531E1
6.311768375E0,-4.486912094E-1,-3.881527346E0,-1.151280626E1,1.215780763E1
6.321831375E0,-4.132461921E-1,-3.401688749E0,-1.137638253E1,1.188125996E1
6.331893375E0,-3.912683357E-1,-3.397015947E0,-1.101847914E1,1.153688393E1
6.341956375E0,-3.316568492E-1,-3.477015797E0,-1.064956193E1,1.120771183E1
6.352019375E0,-2.983664578E-1,-3.629321440E0,-1.048298645E1,1.109747727E1
6.362082375E0,-3.395711653E-1,-3.861244816E0,-1.037604556E1,1.107640923E1
6.372144375E0,-3.721998346E-1,-4.021974250E0,-1.050072223E1,1.125077673E1
6.382207375E0,-3.841458423E-1,-4.113802140E0,-1.070701200E1,1.147654312E1
6.392270375E0,-3.312127167E-1,-4.057092335E0,-1.081481360E1,1.155551355E1
6.402333375E0,-1.624163550E-1,-3.958533422E0,-1.067056630E1,1.138232626E1
6.412396375E0,2.454441860E-2,-3.807236717E0,-1.038484094E1,1.106076739E1
6.422458375E0,2.368265596E-1,-3.716919454E0,-1.008467412E1,1.075045251E1
6.432521375E0,4.476779235E-1,-3.775201284E0,-9.769223272E0,1.048285665E1
6.442584375E0,6.278437574E-1,-3.850990554E0,-9.503322310E0,1.027314221E1
6.452647375E0,7.295246449E-1,-3.992183271E0,-9.193694115E0,1.004956442E1
6.462709375E0,8.048861915E-1,-4.170273672E0,-8.978110782E0,9.932043974E0
6.472772375E0,8.584249060E-1,-4.312563034E0,-8.907622597E0,9.933822707E0
6.482835375E0,8.456611651E-1,-4.330240044E0,-8.995255403E0,1.001901898E1
6.492898375E0,8.193809275E-1,-4.247106670E0,-8.935073521E0,9.926975319E0
6.502960375E0,8.372120847E-1,-4.176681343E0,-8.698569435E0,9.685592462E0
6.513023375E0,8.101943669E-1,-4.128364046E0,-8.330074396E0,9.332199315E0
6.523086375E0,7.996090063E-1,-4.083617351E0,-8.029330460E0,9.043530996E0
6.533149375E0,8.604506008E-1,-4.123129619E0,-7.639902390E0,8.724028978E0
6.543211375E0,8.790596569E-1,-4.053675222E0,-7.371549105E0,8.458413852E0
6.553274375E0,7.066708025E-1,-3.724880438E0,-7.138158077E0,8.082537883E0
6.563337375E0,3.414545900E-1,-3.131623693E0,-6.486725628E0,7.211190440E0
6.573400375E0,-5.389524847E-2,-2.376782066E0,-5.295615056E0,5.804785655E0
6.583463375E0,-4.218691541E-1,-1.407440595E0,-3.643531051E0,3.928636039E0
6.593525375E0,-8.382454339E-1,-1.182190061E-2,-1.590036276E0,1.797501189E0
6.603588375E0,-9.571206437E-1,1.109629330E0,7.216212559E-1,1.633430260E0
6.613651375E0,-8.760476831E-1,1.860396033E0,3.100988960E0,3.720842038E0
6.623714375E0,-9.427288918E-1,2.823124010E0,5.583461788E0,6.327227866E0
6.633776375E0,-1.349376282E0,4.141627285E0,8.067940210E0,9.168726856E0
6.643839375E0,-1.779290620E0,5.415967126E0,1.079594347E1,1.220864327E1
6.653902375E0,-1.649259069E0,5.816054671E0,1.337608585E1,1.467876766E1
6.663965375E0,-1.172883925E0,5.282889175E0,1.571039491E1,1.661628969E1
6.674027375E0,-1.039506012E0,4.472084140E0,1.825386355E1,1.882242396E1
6.684090375E0,-1.317545209E0,4.165408496E0,2.059626048E1,2.105451256E1
6.694153375E0,-1.671850517E0,4.174095120E0,2.216065028E1,2.261222181E1
6.704216375E0,-1.912882979E0,4.343336053E0,2.307229202E1,2.355534649E1
6.714279375E0,-2.089625890E0,4.585705188E0,2.288500102E1,2.343327762E1
6.724341375E0,-2.067549581E0,5.108794177E0,2.182710171E1,2.251215024E1
6.734404375E0,-1.991469850E0,5.612800192E0,2.053824441E1,2.138431578E1
6.744467375E0,-2.175829928E0,6.330392132E0,1.925192713E1,2.038246302E1
6.754530375E0,-2.488915874E0,7.088822780E0,1.778623716E1,1.930793471E1
6.764592375E0,-2.533221397E0,7.347337539E0,1.619435141E1,1.796267233E1
6.774655375E0,-2.419942557E0,7.198013685E0,1.439525788E1,1.627547149E1
6.784718375E0,-2.210389896E0,6.811710951E0,1.252237833E1,1.442550480E1
6.794781375E0,-1.770755878E0,6.358155881E0,1.066025766E1,1.253805471E1
6.804843375E0,-1.194374196E0,5.651680083E0,8.803501228E0,1.052946586E1
6.814906375E0,-6.636659932E-1,4.981771603E0,7.022094355E0,8.635294435E0
6.824969375E0,-1.578235864E-1,3.905567003E0,5.200349295E0,6.505535696E0
6.835032375E0,2.478022219E-1,2.755073529E0,3.278241456E0,4.289370949E0
6.845095375E0,5.012924691E-1,1.460403797E0,1.285570003E0,2.009169884E0
6.855157375E0,6.283191361E-1,1.727752823E-1,-6.622182226E-1,9.290690013E-1
6.865220375E0,6.397299774E-1,-1.014155116E0,-2.657151963E0,2.915170938E0
6.875283375E0,6.183952416E-1,-1.962422637E0,-4.438700924E0,4.892400349E0
6.885346375E0,5.843624000E-1,-2.787388752E0,-5.900553954E0,6.551912120E0
6.895408375E0,5.749102297E-1,-3.521717176E0,-7.043410379E0,7.895735774E0
6.905471375E0,6.332486312E-1,-4.045926492E0,-8.005494286E0,8.992133438E0
6.915534375E0,7.530868775E-1,-4.438113279E0,-8.803991809E0,9.888086827E0
6.925597000E0,7.627124177E-1,-4.765569634E0,-9.456401328E0,1.061677495E1
6.935659000E0,6.812737137E-1,-5.196143392E0,-9.957566181E0,1.125242926E1
6.945722000E0,5.796233779E-1,-5.366787949E0,-1.049711099E1,1.180371616E1
6.955785000E0,4.624336280E-1,-5.467630785E0,-1.100968610E1,1.230130153E1
6.965848000E0,3.923974331E-1,-5.747480280E0,-1.131321389E1,1.269552338E1
6.975911000E0,3.391847008E-1,-5.976278905E0,-1.150660003E1,1.297045874E1
6.985973000E0,2.479741301E-1,-6.083266579E0,-1.162427056E1,1.312216787E1
6.996036000E0,1.485420817E-1,-6.126113806E0,-1.173226513E1,1.323621472E1
7.006099000E0,1.010824250E-1,-6.081670874E0,-1.176745952E1,1.324651055E1
7.016162000E0,4.227098376E-3,-5.917964623E0,-1.170449787E1,1.311554778E1
7.026224000E0,-3.621635640E-2,-5.779287379E0,-1.162610659E1,1.298336739E1
7.036287000E0,-4.226206675E-2,-5.580530578E0,-1.165249624E1,1.291993716E1
7.046350000E0,-6.261578590E-2,-5.394525386E0,-1.153051982E1,1.273018901E1
7.056413000E0,-7.360650480E-2,-5.123730889E0,-1.150844541E1,1.259771217E1
7.066475000E0,-1.496015972E-1,-4.936057486E0,-1.142495419E1,1.244655062E1
7.076538000E0,4.984868288E-2,-4.876891265E0,-1.150524347E1,1.249628668E1
7.086601000E0,2.724001426E-1,-4.843085588E0,-1.175579432E1,1.271724735E1
7.096664000E0,4.314023083E-1,-4.766912155E0,-1.189520247E1,1.282206697E1
7.106727000E0,3.966716015E-1,-4.680883533E0,-1.198156935E1,1.286957743E1
7.116789000E0,3.553842656E-1,-4.494171997E0,-1.180068925E1,1.263250358E1
7.126852000E0,2.567161560E-1,-4.230085133E0,-1.154053025E1,1.229403766E1
7.136915000E0,1.695953471E-1,-3.819614103E0,-1.133401127E1,1.196152273E1
7.146978000E0,1.683750332E-1,-3.650469064E0,-1.117690711E1,1.175914653E1
7.157040000E0,2.019182436E-1,-3.491141501E0,-1.109539459E1,1.163342688E1
7.167103000E0,2.914777617E-1,-3.331563677E0,-1.109300308E1,1.158615523E1
7.177166000E0,3.523140389E-1,-3.245467519E0,-1.115445965E1,1.162235582E1
7.187229000E0,1.594140290E-1,-2.891233255E0,-1.111659542E1,1.148752960E1
7.197291000E0,-1.587403567E-1,-2.438706126E0,-1.087859971E1,1.114972725E1
7.207354000E0,-4.093288500E-1,-2.223275405E0,-1.016236023E1,1.041076698E1
7.217417000E0,-7.944204064E-1,-1.669577412E0,-8.676136007E0,8.870959843E0
7.227480000E0,-1.471840074E0,-6.082086611E-1,-6.347402852E0,6.544138900E0
7.237543000E0,-2.383193830E0,2.186512206E-1,-2.906126406E0,3.764703424E0
7.247605000E0,-3.863981606E0,1.105972189E0,1.773443550E0,4.393020642E0
7.257668000E0,-4.690284979E0,1.734473320E0,7.338031111E0,8.879970240E0
7.267731000E0,-3.182079901E0,2.212772052E0,1.315470091E1,1.371379410E1
7.277794000E0,-7.004986279E-2,1.414838931E0,1.976462503E1,1.981532434E1
7.287856000E0,3.877583984E0,3.728433207E-2,2.634261634E1,2.662649965E1
7.297919000E0,7.567767044E0,-6.062135911E-1,3.153491343E1,3.243592697E1
7.307982000E0,1.046866545E1,-1.148282715E0,3.597466920E1,3.748450791E1
7.318045000E0,1.081987145E1,-1.406082872E0,3.858824595E1,4.010111486E1
7.328107000E0,9.400079193E0,-1.275661019E0,3.956285986E1,4.068425592E1
7.338170000E0,7.131394018E0,-1.121578408E0,3.875683522E1,3.942343205E1
7.348233000E0,4.522596482E0,-7.549326973E-1,3.590064345E1,3.619226440E1
7.358296000E0,2.766392570E0,-3.102515814E-1,3.198346738E1,3.210438240E1
7.368359000E0,1.804334391E0,2.167577460E-1,2.831970730E1,2.837795673E1
7.378421000E0,1.143533241E0,9.411472200E-1,2.509783768E1,2.514149723E1
7.388484000E0,6.230194391E-1,1.457784245E0,2.196559185E1,2.202272720E1
7.398547000E0,1.578499720E-1,1.793782505E0,1.876794841E1,1.885413641E1
7.408610000E0,-9.615146801E-2,1.848765921E0,1.544443314E1,1.555498941E1
7.418672000E0,-2.992186895E-1,1.603666282E0,1.219477521E1,1.230340684E1
7.428735000E0,-4.014805710E-1,1.225548188E0,9.095901187E0,9.186869620E0
7.438798000E0,-3.520760937E-1,9.328775029E-1,6.085232998E0,6.166382947E0
7.448861000E0,-1.867904735E-1,5.352662538E-1,3.215356990E0,3.264953479E0
7.458924000E0,-7.938918181E-2,-4.379798412E-2,5.095871830E-1,5.175905744E-1
7.468986000E0,6.590798758E-3,-5.894193645E-1,-1.869606274E0,1.960328097E0
7.479049000E0,3.866358060E-2,-1.122890523E0,-3.823940458E0,3.985586359E0
7.489112000E0,7.980919462E-3,-1.609144684E0,-5.539525809E0,5.768514237E0
7.499175000E0,-1.138178617E-1,-2.035367968E0,-7.047255508E0,7.336176625E0
7.509237000E0,-2.025662613E-1,-2.350978157E0,-8.444044815E0,8.767555202E0
7.519300000E0,-2.480056319E-1,-2.745320374E0,-9.582448586E0,9.971038645E0
7.529363000E0,-2.412805299E-1,-3.183320096E0,-1.053815610E1,1.101110699E1
7.539426000E0,-1.907140283E-1,-3.664551206E0,-1.122047705E1,1.180527055E1
7.549488000E0,-1.552274957E-2,-4.221783549E0,-1.162035293E1,1.236350676E1
7.559551000E0,2.505040010E-1,-4.573410248E0,-1.196957204E1,1.281598565E1
7.569614000E0,3.198242775E-1,-4.984381800E0,-1.212544243E1,1.311383635E1
7.579677000E0,2.996619084E-1,-5.346438469E0,-1.224359010E1,1.336337159E1
7.589740000E0,2.448476239E-1,-5.702966596E0,-1.235096136E1,1.360624948E1
7.599802000E0,2.290827996E-1,-6.097985775E0,-1.258477046E1,1.398622025E1
7.609865000E0,2.203346340E-1,-6.644364223E0,-1.279565146E1,1.441959846E1
7.619928000E0,1.620871568E-1,-7.027316503E0,-1.298625198E1,1.476659033E1
7.629991000E0,1.318089768E-1,-7.342421200E0,-1.318242841E1,1.508989534E1
7.640053000E0,1.904914686E-1,-7.585420373E0,-1.338045021E1,1.538217595E1
7.650116000E0,2.525671180E-1,-7.612311133E0,-1.356633787E1,1.555816809E1
7.660179000E0,2.495006919E-1,-7.656633613E0,-1.380445053E1,1.578762627E1
7.670242000E0,9.001978531E-2,-7.551799468E0,-1.405834482E1,1.595853495E1
7.680304000E0,9.271491319E-2,-7.331789793E0,-1.433599518E1,1.610231335E1
7.690367000E0,2.171929251E-1,-7.134296576E0,-1.442203228E1,1.609162439E1
7.700430000E0,3.469247333E-1,-6.834257814E0,-1.429995294E1,1.585295211E1
7.710493000E0,5.118241815E-1,-6.570957109E0,-1.422787782E1,1.568030448E1
7.720556000E0,6.787893780E-1,-6.320919642E0,-1.411162699E1,1.547749322E1
7.730618000E0,7.999078721E-1,-6.121036084E0,-1.391836248E1,1.522589076E1
7.740681000E0,8.497116776E-1,-5.821570934E0,-1.377556177E1,1.497927903E1
7.750744000E0,9.110336208E-1,-5.413269221E0,-1.363560165E1,1.469908495E1
7.760807000E0,9.734112058E-1,-5.081235080E0,-1.344368668E1,1.440483220E1
7.770869000E0,1.042473620E0,-4.776890721E0,-1.326132489E1,1.413393696E1
7.780932000E0,1.139006984E0,-4.440554784E0,-1.304266124E1,1.382486441E1
7.790995000E0,1.163254730E0,-4.087720635E0,-1.284953238E1,1.353414586E1
7.801058000E0,1.186719314E0,-3.622482828E0,-1.266103102E1,1.322242001E1
7.811121000E0,1.142895529E0,-3.110828947E0,-1.234058606E1,1.277785315E1
7.821183000E0,1.008197973E0,-2.553923464E0,-1.178198050E1,1.209768790E1
7.831246000E0,7.301743437E-1,-1.944820179E0,-1.077265284E1,1.097112252E1
7.841309000E0,1.015298101E-1,-1.252485580E0,-8.943153203E0,9.031003136E0
7.851372000E0,-1.608928191E0,2.482852019E-1,-6.447311887E0,6.649671122E0
7.861434000E0,-3.633760061E0,2.102436116E0,-2.778517356E0,5.034342906E0
7.871497000E0,-5.486543604E0,4.145727938E0,3.794599130E0,7.854183815E0
7.881560000E0,-5.375383941E0,4.572832543E0,1.240435813E1,1.427142777E1
7.891623000E0,-1.858279633E0,2.388223312E0,2.022524763E1,2.045036566E1
7.901685000E0,3.285354009E0,-5.813673831E-1,2.830920804E1,2.850513636E1
7.911748000E0,8.147205065E0,-3.812654162E0,3.511218852E1,3.624609033E1
7.921810750E0,1.159206527E1,-5.700859260E0,3.959561362E1,4.164959053E1
7.931873750E0,1.279030360E1,-6.080165216E0,4.226207494E1,4.457177642E1
7.941936750E0,1.148133304E1,-5.533812495E0,4.261881123E1,4.448378535E1
7.951998750E0,8.609451436E0,-4.035959913E0,4.003375251E1,4.114745395E1
7.962061750E0,5.536432632E0,-2.519955526E0,3.589334846E1,3.640514697E1
7.972124750E0,3.060549617E0,-7.070478749E-1,3.150717424E1,3.166336857E1
7.982187750E0,1.228070238E0,7.862867832E-1,2.728914256E1,2.732807540E1
7.992249750E0,1.375266218E-1,1.752743822E0,2.365932908E1,2.372456273E1
8.002312750E0,-3.636387069E-1,2.269320913E0,2.043716008E1,2.056598071E1
8.012375750E0,-4.100258381E-1,2.450016980E0,1.753002737E1,1.770515642E1
8.022438750E0,-3.200306111E-1,2.303607378E0,1.492593947E1,1.510604832E1
8.032501750E0,-2.932238317E-1,2.096554548E0,1.253326351E1,1.271079129E1
8.042563750E0,-1.592587489E-1,1.779824325E0,1.025807330E1,1.041255040E1
8.052626750E0,9.596256640E-2,1.273619463E0,8.086398116E0,8.186644602E0
8.062689750E0,2.789188013E-1,6.466741307E-1,5.864188365E0,5.906326127E0
8.072752750E0,4.566516819E-1,-7.603858106E-2,3.552713267E0,3.582748132E0
8.082814750E0,7.567545435E-1,-8.074887872E-1,1.305516610E0,1.711458208E0
8.092877750E0,1.030450137E0,-1.498352227E0,-8.368353778E-1,2.001794278E0
8.102940750E0,1.185055342E0,-2.018957026E0,-2.760686857E0,3.619659591E0
8.113003750E0,1.104872767E0,-2.476714489E0,-4.484307452E0,5.240598421E0
8.123065750E0,1.049573894E0,-2.960051767E0,-6.125904475E0,6.884055307E0
8.133128750E0,1.047566910E0,-3.514212860E0,-7.581975778E0,8.422199544E0
8.143191750E0,1.161231447E0,-3.999775588E0,-8.789535154E0,9.726386351E0
8.153254750E0,1.284295310E0,-4.509629404E0,-9.827450430E0,1.088875355E1
8.163317750E0,1.402269171E0,-4.763736532E0,-1.080721690E1,1.189350586E1
8.173379750E0,1.461880950E0,-4.922216542E0,-1.174624699E1,1.281950194E1
8.183442750E0,1.452137881E0,-4.997188371E0,-1.249030518E1,1.353101325E1
8.193505750E0,1.372472345E0,-4.982695463E0,-1.302657789E1,1.401437355E1
8.203568750E0,1.290853401E0,-4.961230919E0,-1.342252444E1,1.436816888E1
8.213630750E0,1.120962842E0,-4.896197602E0,-1.368896100E1,1.458139095E1
8.223693750E0,1.007925785E0,-4.783655657E0,-1.380883126E1,1.464865511E1
8.233756750E0,9.224223889E-1,-4.865535680E0,-1.371833040E1,1.458481709E1
8.243819750E0,8.135848019E-1,-5.002876543E0,-1.354446227E1,1.446178247E1
8.253882750E0,6.700187007E-1,-5.095697583E0,-1.340072134E1,1.435250470E1
8.263944750E0,5.512190661E-1,-5.231204467E0,-1.326062439E1,1.426581585E1
8.274007750E0,4.691583645E-1,-5.334216034E0,-1.315671235E1,1.420468409E1
8.284070750E0,4.547427852E-1,-5.444810856E0,-1.307363511E1,1.416942805E1
8.294133750E0,3.955828500E-1,-5.462052541E0,-1.299039883E1,1.409755175E1
8.304195750E0,3.477787922E-1,-5.404137624E0,-1.303279933E1,1.411309717E1
8.314258750E0,2.640047103E-1,-5.369846628E0,-1.308151248E1,1.414322877E1
8.324321750E0,2.276031616E-1,-5.168784270E0,-1.313112026E1,1.411362651E1
8.334384750E0,2.202133043E-1,-5.018683906E0,-1.307778430E1,1.400942983E1
8.344446750E0,2.296521722E-1,-4.856438289E0,-1.298311553E1,1.386358619E1
8.354509750E0,1.593344338E-1,-4.609964701E0,-1.284524521E1,1.364835105E1
8.364572750E0,8.438774720E-2,-4.307809832E0,-1.273153090E1,1.344084171E1
8.374635750E0,1.189186620E-3,-4.041212759E0,-1.257370285E1,1.320717250E1
8.384698750E0,-3.091086701E-2,-3.774559844E0,-1.233022830E1,1.289506834E1
8.394760750E0,-4.542190209E-2,-3.533776766E0,-1.196666597E1,1.247760938E1
8.404823750E0,-8.976455435E-2,-3.281035255E0,-1.144860968E1,1.190982425E1
8.414886750E0,-2.649409957E-1,-2.824444311E0,-1.067847525E1,1.104886931E1
8.424949750E0,-4.889061660E-1,-2.213673108E0,-9.472415097E0,9.739919181E0
8.435011750E0,-8.388023812E-1,-1.443562062E0,-7.861911812E0,8.037233243E0
8.445074750E0,-1.812112942E0,-5.562415320E-1,-6.141623545E0,6.427495447E0
8.455137750E0,-3.211092031E0,4.019452053E-1,-4.285100416E0,5.369800513E0
8.465200750E0,-4.664286796E0,1.783954505E0,-1.320778427E0,5.165512622E0
8.475263750E0,-5.230610974E0,3.411393958E0,3.706362306E0,7.261819431E0
8.485325750E0,-4.447253646E0,2.851005873E0,9.403239613E0,1.078550948E1
8.495388750E0,-2.936041638E0,1.755592440E0,1.345532381E1,1.388337798E1
8.505451750E0,-7.057347364E-1,5.916606022E-1,1.714658919E1,1.717130294E1
8.515514750E0,2.380760950E0,-1.484869279E0,1.974944098E1,1.994776375E1
8.525576750E0,4.608644400E0,-2.817817369E0,2.178337624E1,2.244315437E1
8.535639750E0,5.549787673E0,-3.222644960E0,2.363973155E1,2.449535653E1
8.545702750E0,5.776212913E0,-3.113085680E0,2.485583078E1,2.570735813E1
8.555765750E0,5.718045981E0,-3.002654580E0,2.462979380E1,2.546249648E1
8.565828750E0,5.376989586E0,-2.746748556E0,2.354687777E1,2.430868358E1
8.575890750E0,4.838523005E0,-2.588382275E0,2.228067491E1,2.294644857E1
8.585953750E0,4.302304094E0,-2.103095243E0,2.027033200E1,2.082832662E1
8.596016750E0,3.879473804E0,-1.544811864E0,1.788057146E1,1.836168828E1
8.606079750E0,3.393881255E0,-8.940637585E-1,1.547651681E1,1.586947865E1
8.616141750E0,2.855106233E0,3.395609692E-2,1.313712652E1,1.344384163E1
8.626204750E0,2.235003166E0,9.352181433E-1,1.082730326E1,1.109506052E1
8.636267750E0,1.610831021E0,1.647245434E0,8.534894759E0,8.840397200E0
8.646330750E0,9.776880786E-1,2.099859686E0,6.178572101E0,6.598487546E0
8.656392750E0,3.975843519E-1,2.258265729E0,3.982995248E0,4.595877345E0
8.666455750E0,-2.137312272E-1,2.315377823E0,1.970204111E0,3.047681043E0
8.676518750E0,-7.482505723E-1,2.191942369E0,1.973786116E-1,2.324531907E0
8.686581750E0,-1.153542651E0,1.872607943E0,-1.287830536E0,2.548691555E0
8.696644750E0,-1.381426333E0,1.511929462E0,-2.550411041E0,3.270912088E0
8.706706750E0,-1.369563209E0,1.116081440E0,-3.499780177E0,3.920433963E0
8.716769750E0,-1.201073059E0,7.705189622E-1,-4.209650284E0,4.444933237E0
8.726832750E0,-1.028518217E0,4.513835599E-1,-4.618513915E0,4.753132401E0
8.736895750E0,-8.034532582E-1,1.787169304E-1,-4.988622785E0,5.056069043E0
8.746957750E0,-6.518724516E-1,-2.457782082E-2,-5.375680979E0,5.415116597E0
8.757020750E0,-4.783050909E-1,-1.330557311E-1,-5.720773122E0,5.742275220E0
8.767083750E0,-2.961108944E-1,-2.704254647E-1,-5.944068933E0,5.957580639E0
8.777146750E0,-1.813194530E-1,-2.232547335E-1,-6.233033068E0,6.239665107E0
8.787209750E0,-9.705237776E-2,-7.474408060E-2,-6.379048567E0,6.380224641E0
8.797271750E0,-1.220788993E-1,-4.231118336E-3,-6.201181530E0,6.202384503E0
8.807334750E0,3.050916329E-2,-1.598577596E-2,-5.966707013E0,5.966806426E0
8.817397750E0,1.041049969E-1,-5.758769207E-2,-5.604190752E0,5.605453432E0
8.827460750E0,1.813875000E-1,7.574965551E-2,-5.166865214E0,5.170603019E0
8.837522750E0,9.908494301E-2,5.963370591E-2,-4.478777155E0,4.480269949E0
8.847585750E0,1.018706296E-1,-1.204880181E-1,-3.771362295E0,3.774661381E0
8.857648750E0,-1.417688133E-1,-1.658260126E-1,-3.119586030E0,3.127205407E0
8.867711750E0,-4.181618001E-1,-3.645446599E-2,-2.554325168E0,2.588583644E0
8.877773750E0,-8.437930528E-1,7.929569945E-2,-2.039002451E0,2.208122623E0
8.887836750E0,-1.323572665E0,2.516207461E-1,-1.602779698E0,2.093814786E0
8.897899750E0,-1.553590435E0,2.228613621E-1,-1.268580333E0,2.018069991E0
8.907962750E0,-1.469924234E0,-9.249008775E-2,-9.383389485E-1,1.746342364E0
8.918025750E0,-1.178317450E0,-5.287650271E-1,-3.055070776E-1,1.327162025E0
8.928091542E0,-6.194436474E-1,-1.156833318E0,5.708613253E-1,1.431033336E0
8.938154542E0,5.500263803E-2,-1.783675447E0,1.202417334E0,2.151820354E0
8.948217542E0,6.676510169E-1,-2.252964643E0,1.165035499E0,2.622768628E0
8.958280542E0,1.145633488E0,-2.511830235E0,7.473542672E-1,2.860123358E0
8.968342542E0,1.259813018E0,-2.343694134E0,3.851882547E-1,2.688568583E0
8.978405542E0,1.104060442E0,-1.918048848E0,1.636296523E-1,2.219151979E0
8.988468542E0,6.764939073E-1,-1.398809228E0,-3.368230104E-2,1.554170441E0
8.998531542E0,1.364186110E-1,-7.190650725E-1,-3.871733844E-1,8.279902448E-1
9.008594542E0,-4.797386820E-1,-1.280893984E-1,-7.276357019E-1,8.809141909E-1
9.018656542E0,-9.740122265E-1,3.362141691E-1,-1.058316212E0,1.477082594E0
9.028719542E0,-1.227798050E0,6.701043624E-1,-1.371038169E0,1.958640746E0
9.038782542E0,-1.252473008E0,8.311679640E-1,-1.264139373E0,1.964071581E0
9.048845542E0,-1.140585367E0,7.819200826E-1,-1.047746201E0,1.734965733E0
9.058907542E0,-8.338547596E-1,7.574564286E-1,-7.930175132E-1,1.377654085E0
9.068970542E0,-4.559318165E-1,7.238507261E-1,-1.674654257E-1,8.717100228E-1
9.079033542E0,2.243569337E-2,5.239419512E-1,6.700412124E-1,8.508664731E-1
9.089096542E0,5.460600677E-1,3.553575146E-1,1.340492315E0,1.490429538E0
9.099159542E0,1.031089822E0,1.971289355E-1,1.747614645E0,2.038666963E0
9.109221542E0,1.389870881E0,6.290186092E-2,1.989732057E0,2.427906788E0
9.119284542E0,1.686810472E0,-4.337544970E-2,2.033816555E0,2.642654117E0
9.129347542E0,1.683292057E0,1.620910306E-2,1.986289217E0,2.603666595E0
9.139410542E0,1.518523659E0,1.697213912E-1,1.670216805E0,2.263701312E0
9.149472542E0,1.233743061E0,4.085984962E-1,1.277105573E0,1.822106835E0
9.159535542E0,8.337063865E-1,6.257596636E-1,8.323616731E-1,1.333966810E0
9.169598542E0,4.435661249E-1,9.073011969E-1,3.374562639E-1,1.064811297E0
9.179661542E0,1.385471436E-1,1.140755667E0,-1.370967418E-1,1.157287484E0
9.189723542E0,-9.213457704E-2,1.291289895E0,-4.674796289E-1,1.376392232E0
9.199786542E0,-2.510791478E-1,1.398370979E0,-5.926082897E-1,1.539372183E0
9.209849542E0,-3.104950449E-1,1.360128142E0,-5.315311986E-1,1.492943787E0
9.219912542E0,-3.223795107E-1,1.405402256E0,-5.561181557E-1,1.545429213E0
9.229975542E0,-2.939700826E-1,1.372145778E0,-5.486424905E-1,1.506721948E0
9.240037542E0,-2.697409751E-1,1.248311545E0,-5.184474689E-1,1.378343094E0
9.250100542E0,-2.805343504E-1,1.161010788E0,-4.386534405E-1,1.272423833E0
9.260163542E0,-1.469093198E-1,1.015498587E0,-4.432066673E-1,1.117699368E0
9.270226542E0,-4.502063692E-3,7.428242831E-1,-1.778225988E-1,7.638252816E-1
9.280288542E0,1.357345598E-1,4.833632979E-1,3.871266067E-2,5.035500159E-1
9.290351542E0,1.285439464E-1,3.781629713E-1,5.688931525E-2,4.034441389E-1
9.300414542E0,1.936813440E-1,2.312891367E-1,8.977522552E-2,3.147486599E-1
9.310477542E0,2.228327838E-1,2.679155474E-1,5.596194685E-2,3.529375718E-1
9.320540542E0,2.160936485E-1,2.004876127E-1,1.530444378E-1,3.321360379E-1
9.330602542E0,2.372816192E-1,1.438168006E-1,2.560419720E-1,3.775491099E-1
9.340665542E0,2.984663721E-1,5.914856974E-2,2.360257834E-1,3.850829768E-1
9.350728542E0,3.615552709E-1,1.155019511E-1,1.207876879E-1,3.983121642E-1
9.360791542E0,3.335335131E-1,2.312247077E-1,-1.778606057E-2,4.062336936E-1
9.370853542E0,3.314216450E-1,2.732260618E-1,-1.424989843E-1,4.525469568E-1
9.380916542E0,2.904407032E-1,3.748803810E-1,-1.808789384E-1,5.075512708E-1
9.390979542E0,2.946642201E-1,5.248977517E-1,-4.432423353E-2,6.035803924E-1
9.401042542E0,2.945597742E-1,5.402269950E-1,-9.004127383E-3,6.153793473E-1
9.411105542E0,3.485514287E-1,6.698537361E-1,-8.517755985E-2,7.598995611E-1
9.421167542E0,4.049532323E-1,6.777558826E-1,-2.019078648E-1,8.149275690E-1
9.431230542E0,3.951815117E-1,5.602633200E-1,-3.737353134E-1,7.808594620E-1
9.441293542E0,2.019422903E-1,5.947914939E-1,-7.280625486E-1,9.615782259E-1
9.451356542E0,1.277960144E-1,5.618870918E-1,-8.212858772E-1,1.003274348E0
9.461418542E0,-1.144380502E-2,4.246907280E-1,-6.925079691E-1,8.124410517E-1
9.471481542E0,-4.837507490E-2,4.021526353E-1,-7.688603264E-1,8.690299716E-1
9.481544542E0,-6.143453870E-2,3.718033934E-1,-7.905342007E-1,8.757604058E-1
9.491607542E0,-1.862685364E-2,2.969601111E-1,-7.392067569E-1,7.968430817E-1
9.501669542E0,4.955613937E-2,2.321713354E-1,-5.708215642E-1,6.182205093E-1
9.511732542E0,1.956788991E-1,1.325677626E-1,-4.504952216E-1,5.087341034E-1
9.521795542E0,3.117984623E-1,5.388446767E-2,-4.058645940E-1,5.146337393E-1
9.531858542E0,3.574734027E-1,9.307897545E-2,-4.184945798E-1,5.582012564E-1
9.541921542E0,3.636649828E-1,1.098818267E-1,-4.520002949E-1,5.904494070E-1
9.551983542E0,2.186120443E-1,1.816707793E-1,-4.117457235E-1,5.003299299E-1
9.562046542E0,-1.807838481E-2,2.988846856E-1,-4.379020733E-1,5.304876144E-1
9.572109542E0,-1.503743798E-1,4.131991220E-1,-5.883901083E-1,7.345399160E-1
9.582172542E0,-2.523141893E-1,4.849918205E-1,-5.846303487E-1,8.004199902E-1
9.592234542E0,-3.520155385E-1,5.418908933E-1,-5.213272226E-1,8.302666756E-1
9.602297542E0,-3.482118151E-1,5.621165950E-1,-3.891304475E-1,7.672346706E-1
9.612360542E0,-3.321947200E-1,5.042609177E-1,-1.597897857E-1,6.246320363E-1
9.622423542E0,-3.556090180E-1,5.058240612E-1,5.730505228E-2,6.209666847E-1
9.632486542E0,-2.846933287E-1,4.036153528E-1,2.860761952E-1,5.707847527E-1
9.642548542E0,-1.980921911E-1,2.958490305E-1,5.376544029E-1,6.448561250E-1
9.652611542E0,-9.204584554E-2,2.207738330E-1,7.367807472E-1,7.746350059E-1
9.662674542E0,-1.135536589E-2,6.332732809E-2,9.029206091E-1,9.052098769E-1
9.672737542E0,1.156418458E-2,-4.262886990E-2,9.918298620E-1,9.928128857E-1
9.682799542E0,5.544958457E-2,-4.247276751E-2,1.060743392E0,1.063040514E0
9.692862542E0,1.069661857E-1,-1.241539299E-1,1.172769027E0,1.184163483E0
9.702925542E0,9.212441750E-2,-1.903894530E-1,1.210404630E0,1.228745059E0
9.712988542E0,-3.953448683E-4,-1.922206913E-1,1.175519557E0,1.191131890E0
9.723050542E0,-8.379425481E-2,-2.265367757E-1,1.167448645E0,1.192173111E0
9.733113542E0,-1.295913289E-1,-2.500831659E-1,1.092938746E0,1.128649903E0
9.743176542E0,-1.813630148E-1,-2.614327942E-1,1.043047378E0,1.090498731E0
9.753239542E0,-2.254949480E-1,-3.055508769E-1,1.009954476E0,1.078989043E0
9.763302542E0,-2.487197232E-1,-3.268863253E-1,9.187209553E-1,1.006361945E0
9.773364542E0,-2.546467533E-1,-3.398998884E-1,8.981141979E-1,9.934716984E-1
9.783427542E0,-3.024014752E-1,-3.385934743E-1,8.882598853E-1,9.975458971E-1
9.793490542E0,-3.260282464E-1,-2.743702705E-1,8.296210831E-1,9.326546008E-1
9.803553542E0,-3.120159788E-1,-2.372323016E-1,7.739573443E-1,8.675500600E-1
9.813615542E0,-3.316444970E-1,-2.322035865E-1,7.157313555E-1,8.223004021E-1
9.823678542E0,-3.553004312E-1,-1.261887975E-1,6.706844062E-1,7.694020936E-1
9.833741542E0,-2.993922056E-1,-1.216037034E-1,7.722938114E-1,8.371743454E-1
9.843804542E0,-2.302612328E-1,-1.304463197E-1,7.251903963E-1,7.719699402E-1
9.853867542E0,-2.742061282E-1,-8.260300339E-2,5.656198812E-1,6.339858885E-1
9.863929542E0,-3.482278584E-1,-9.076390746E-2,5.142398125E-1,6.276490365E-1
9.873992542E0,-4.255031256E-1,-8.635909027E-2,4.923238635E-1,6.564248540E-1
9.884055542E0,-4.916343671E-1,-7.209509091E-2,3.719320321E-1,6.206734162E-1
9.894118542E0,-4.794528262E-1,-9.826454211E-2,2.392113465E-1,5.447504026E-1
9.904180542E0,-4.254385869E-1,-1.747666064E-1,3.623349971E-1,5.855151647E-1
9.914243542E0,-3.200298436E-1,-2.906778261E-1,3.785727149E-1,5.746564190E-1
9.924302750E0,-2.623870781E-1,-2.681033709E-1,2.227795011E-1,4.362993266E-1
9.934365750E0,-2.380727840E-1,-2.679207368E-1,1.113742554E-1,3.753190596E-1
9.944428750E0,-2.255076657E-1,-2.983243579E-1,1.447589332E-1,4.010065817E-1
9.954490750E0,-2.393667363E-1,-2.678927433E-1,1.073694974E-1,3.749548844E-1
9.964553750E0,-2.352965991E-1,-2.208563153E-1,-2.336371958E-2,3.235550416E-1
9.974616750E0,-2.272827708E-1,-1.899691661E-1,-8.288895965E-2,3.075976618E-1
9.984679750E0,-2.225459048E-1,-1.774554302E-1,-5.105730236E-2,2.891780725E-1
9.994741750E0,-2.088901347E-1,-1.304387549E-1,-1.588840520E-1,2.930759272E-1
1.000480475E1,-1.588100117E-1,-8.197633719E-2,-2.933296663E-1,3.434865831E-1
1.001486775E1,-8.658268232E-2,-1.500276217E-1,-2.517354977E-1,3.055742282E-1
1.002493075E1,-7.991656411E-2,-1.901590544E-1,-2.194331396E-1,3.011611295E-1
1.003499275E1,-1.486902721E-1,-1.371927823E-1,-3.006065261E-1,3.623464366E-1
1.004505575E1,-1.480906401E-1,-1.612598488E-1,-3.106637371E-1,3.800625397E-1
1.005511875E1,-1.604445277E-1,-1.797960706E-1,-1.843679720E-1,3.034149347E-1
1.006518175E1,-1.877983142E-1,-2.007164946E-1,-2.229192495E-1,3.539043795E-1
1.007524475E1,-1.318037874E-1,-1.931825400E-1,-3.001972210E-1,3.805392275E-1
1.008530675E1,-8.681664404E-2,-2.825683775E-1,-2.979863888E-1,4.197355186E-1
1.009536975E1,-1.244999389E-1,-2.789898450E-1,-4.293084204E-1,5.269167754E-1
1.010543275E1,-1.376093051E-1,-2.727092775E-1,-5.326562029E-1,6.140271178E-1
1.011549575E1,-1.526795350E-1,-3.042312882E-1,-6.140190393E-1,7.020591839E-1
1.012555775E1,-1.946359020E-1,-2.450814759E-1,-6.438836932E-1,7.159149912E-1
1.013562075E1,-1.548697558E-1,-2.627959081E-1,-6.631251258E-1,7.299186688E-1
1.014568375E1,-1.353997702E-1,-2.426869315E-1,-6.650254709E-1,7.207557987E-1
1.015574675E1,-1.172107268E-1,-2.177597030E-1,-6.739296108E-1,7.178709934E-1
1.016580975E1,-7.355883172E-2,-2.514689012E-1,-6.675964916E-1,7.171698443E-1
1.017587175E1,-8.194757620E-2,-2.874381214E-1,-6.483714312E-1,7.139478915E-1
1.018593475E1,-9.287781296E-2,-2.875460391E-1,-6.609675032E-1,7.267647852E-1
1.019599775E1,-1.036736186E-1,-2.972390416E-1,-5.898717928E-1,6.686164812E-1
1.020606075E1,-8.031092227E-2,-3.175440461E-1,-5.015139323E-1,5.989994072E-1
1.021612275E1,-7.046830416E-2,-3.002447662E-1,-4.319390827E-1,5.307391758E-1
1.022618575E1,-6.914405599E-2,-3.261164297E-1,-3.904080641E-1,5.133724600E-1
1.023624875E1,-8.272925757E-2,-3.206396717E-1,-3.649364233E-1,4.927803995E-1
1.024631175E1,-8.666004829E-2,-3.319887884E-1,-3.501599246E-1,4.902432992E-1
1.025637475E1,-6.591588132E-2,-3.081875509E-1,-3.567438895E-1,4.760154121E-1
1.026643675E1,-8.493358478E-2,-2.629452679E-1,-3.090984374E-1,4.146031497E-1
1.027649975E1,-1.218160670E-1,-1.984904596E-1,-2.341137439E-1,3.302224429E-1
1.028656275E1,-1.445344001E-1,-1.357139667E-1,-2.109663713E-1,2.895086931E-1
1.029662575E1,-1.903664113E-1,-1.115971074E-1,-1.829459292E-1,2.866400145E-1
1.030668775E1,-2.006582417E-1,-5.680290436E-2,-1.276692760E-1,2.445194143E-1
1.031675075E1,-2.172247193E-1,7.218643539E-3,-4.111294270E-2,2.211989185E-1
1.032681375E1,-2.396221865E-1,6.148701746E-2,5.579997897E-2,2.536002430E-1
1.033687675E1,-2.564217487E-1,1.115291153E-1,8.838358819E-2,2.932618547E-1
1.034693975E1,-2.626713990E-1,1.443993660E-1,1.464610577E-1,3.336139717E-1
1.035700175E1,-2.845974344E-1,1.605705169E-1,2.145103687E-1,3.908878213E-1
1.036706475E1,-2.441042966E-1,2.315925707E-1,1.356197351E-1,3.627874570E-1
1.037712775E1,-2.050638995E-1,2.010997431E-1,2.148822516E-1,3.587013961E-1
1.038719075E1,-2.250610846E-1,2.484057277E-1,2.244909811E-1,4.034279340E-1
1.039725275E1,-2.490313797E-1,3.096757038E-1,2.315210885E-1,4.599105174E-1
1.040731575E1,-3.017198360E-1,3.470295812E-1,1.207286310E-1,4.754364227E-1
1.041737875E1,-3.787224767E-1,4.330011929E-1,5.406335592E-3,5.752825184E-1
1.042744175E1,-4.228999452E-1,4.864289930E-1,-2.238846248E-1,6.823355876E-1
1.043750475E1,-4.697702757E-1,5.484457317E-1,-4.783338153E-1,8.661870880E-1
1.044756675E1,-4.875057578E-1,5.533609743E-1,-6.774835485E-1,1.001426078E0
1.045762975E1,-5.638475901E-1,5.796220988E-1,-9.429453850E-1,1.242188344E0
1.046769275E1,-5.848152669E-1,6.667140006E-1,-1.409594125E0,1.665374448E0
1.047775575E1,-5.755199482E-1,6.585216129E-1,-1.876059262E0,2.069896683E0
1.048781775E1,-5.067959415E-1,6.686036014E-1,-2.420544966E0,2.561817877E0
1.049788075E1,-5.685789377E-1,7.820469671E-1,-3.073569612E0,3.222066049E0
1.050794375E1,-3.679359718E-1,6.647712632E-1,-3.647424712E0,3.725722043E0
1.051800675E1,-2.844833406E-1,5.934907442E-1,-4.236597177E0,4.287413868E0
1.052806975E1,-3.872675977E-1,6.638517885E-1,-4.821822188E0,4.882688256E0
1.053813175E1,-5.905787943E-1,6.370102912E-1,-5.384652947E0,5.454269226E0
1.054819475E1,-8.207309765E-1,7.744654673E-1,-5.678091956E0,5.789138482E0
1.055825775E1,-9.195079905E-1,8.289718229E-1,-5.470284251E0,5.608627195E0
1.056832075E1,-8.508512268E-1,7.510797476E-1,-5.146758978E0,5.270407629E0
1.057838275E1,-6.810351473E-1,6.783837274E-1,-5.031722612E0,5.122718594E0
1.058844575E1,-4.390332171E-1,5.251871158E-1,-4.844057395E0,4.892183941E0
1.059850875E1,-1.195480782E-1,1.759151640E-1,-4.603494757E0,4.608405566E0
1.060857175E1,1.836700337E-1,2.120863324E-1,-4.229517369E0,4.238812624E0
1.061863475E1,5.127167590E-2,8.635513427E-2,-3.530469874E0,3.531898006E0
1.062869675E1,-1.330734189E-1,1.667623163E-1,-2.708314515E0,2.716704938E0
1.063875975E1,-5.359141253E-1,6.234087905E-1,-1.435956296E0,1.654633783E0
1.064882275E1,-9.602328973E-1,1.245344375E0,2.090993553E-1,1.586396032E0
1.065888575E1,-1.273868555E0,1.709543862E0,2.390316031E0,3.202950521E0
1.066894775E1,-1.205049019E0,1.673220228E0,4.910475917E0,5.325841042E0
1.067901075E1,-2.785337987E-1,1.011188677E0,7.664812113E0,7.736241229E0
1.068907375E1,1.188461565E0,3.039466750E-2,1.082924921E1,1.089431059E1
1.069913675E1,2.619806966E0,-5.940389572E-1,1.431128484E1,1.456122058E1
1.070919975E1,3.617332309E0,-9.260916629E-1,1.740879471E1,1.780474296E1
1.071926175E1,4.878557137E0,-1.486300969E0,1.996013487E1,2.060136875E1
1.072932475E1,5.791050807E0,-2.038529411E0,2.204120102E1,2.288026255E1
1.073938775E1,5.847592213E0,-2.470642156E0,2.303373080E1,2.389249175E1
1.074945075E1,5.215364944E0,-2.872023105E0,2.302997455E1,2.378714518E1
1.075951375E1,4.386435294E0,-3.305216416E0,2.203160691E1,2.270587971E1
1.076957575E1,3.726607706E0,-3.402793581E0,2.039972855E1,2.101465046E1
1.077963875E1,3.182081655E0,-3.093428510E0,1.860684827E1,1.912876750E1
1.078970175E1,2.713916148E0,-2.360409277E0,1.664235572E1,1.702659322E1
1.079976475E1,2.206604117E0,-1.441458526E0,1.461073479E1,1.484656443E1
1.080982675E1,1.592592532E0,-3.803385010E-1,1.249070747E1,1.259757046E1
1.081988975E1,1.106603104E0,4.832452572E-1,1.032815686E1,1.039850569E1
1.082995275E1,4.885035852E-1,9.796208026E-1,7.931473213E0,8.006657230E0
1.084001575E1,-5.009360813E-1,1.467925948E0,5.089435215E0,5.320535157E0
1.085007875E1,-1.190497638E0,1.307535653E0,2.375548888E0,2.961446712E0
1.086014075E1,-1.756563224E0,1.103365720E0,-5.025769562E-1,2.134364980E0
1.087020375E1,-2.350019213E0,1.104102981E0,-3.576383965E0,4.419519879E0
1.088026675E1,-2.124390218E0,8.003369846E-1,-5.445338275E0,5.899600157E0
1.089032975E1,-1.773199722E0,5.616262329E-1,-7.111140432E0,7.350372747E0
1.090039175E1,-1.518365784E0,5.028545162E-1,-8.695231844E0,8.841117245E0
1.091045475E1,-1.405376820E0,5.076981669E-1,-9.883738067E0,9.996055203E0
1.092051775E1,-1.518146221E0,7.750346207E-1,-1.080721456E1,1.094081045E1
1.093058529E1,-1.475575860E0,9.152978490E-1,-1.151397337E1,1.164416923E1
1.094064829E1,-1.433903485E0,9.467617895E-1,-1.187890160E1,1.200253058E1
1.095071029E1,-1.446932982E0,1.089907549E0,-1.210024327E1,1.223508892E1
1.096077329E1,-1.479812753E0,1.150250522E0,-1.213751693E1,1.228137775E1
1.097083629E1,-1.563829640E0,1.200610544E0,-1.207147848E1,1.223141944E1
1.098089929E1,-1.579323592E0,1.225044889E0,-1.199086175E1,1.215630550E1
1.099096229E1,-1.493944742E0,1.051987771E0,-1.183435985E1,1.197458234E1
1.100102429E1,-1.485379302E0,7.103575451E-1,-1.156893836E1,1.168551643E1
1.101108729E1,-1.447217741E0,3.243701953E-1,-1.128648978E1,1.138351909E1
1.102115029E1,-1.579453985E0,-2.508674785E-3,-1.096731133E1,1.108046023E1
1.103121329E1,-1.638525481E0,-3.933947488E-1,-1.064164714E1,1.077423682E1
1.104127529E1,-1.745804054E0,-8.100708445E-1,-1.037221212E1,1.054925736E1
1.105133829E1,-1.997080107E0,-1.042098229E0,-1.021697790E1,1.046235801E1
1.106140129E1,-2.009622823E0,-1.398863314E0,-1.006626592E1,1.035978340E1
1.107146429E1,-2.037032378E0,-1.825429391E0,-9.946022608E0,1.031528279E1
1.108152729E1,-2.096270958E0,-2.199110033E0,-9.908927872E0,1.036423120E1
1.109158929E1,-2.050657267E0,-2.533333663E0,-9.899492805E0,1.042223261E1
1.110165229E1,-1.944093662E0,-2.806697427E0,-9.899123261E0,1.047137488E1
1.111171529E1,-1.866731198E0,-2.893755451E0,-9.904579883E0,1.048614365E1
1.112177829E1,-1.921097148E0,-2.842394094E0,-9.918143084E0,1.049473109E1
1.113184029E1,-1.960529893E0,-2.695064140E0,-9.921578908E0,1.046636404E1
1.114190329E1,-1.930669917E0,-2.619173128E0,-9.895433668E0,1.041667709E1
1.115196629E1,-1.862698520E0,-2.530786031E0,-9.961746941E0,1.044561754E1
1.116202929E1,-1.768381177E0,-2.183163652E0,-1.008531732E1,1.046933622E1
1.117209229E1,-1.459922718E0,-1.916048369E0,-1.012258513E1,1.040525566E1
1.118215429E1,-1.185371969E0,-1.696796201E0,-1.022026287E1,1.042775130E1
1.119221729E1,-9.390433918E-1,-1.438479078E0,-1.034148618E1,1.048319421E1
1.120228029E1,-7.411630160E-1,-1.165776561E0,-1.042509785E1,1.051622664E1
1.121234329E1,-6.335989525E-1,-9.401242496E-1,-1.047282633E1,1.053401028E1
1.122240629E1,-5.564066427E-1,-6.108533567E-1,-1.056451535E1,1.059677851E1
1.123246829E1,-4.588440954E-1,-3.666151589E-1,-1.057788677E1,1.059417920E1
1.124253129E1,-4.639310999E-1,-1.973780268E-1,-1.041420215E1,1.042639902E1
1.125259429E1,-5.116324294E-1,-6.145832956E-2,-1.002548276E1,1.003871752E1
1.126265729E1,-6.244556614E-1,1.395733300E-1,-9.029084469E0,9.051728671E0
1.127271929E1,-7.802688289E-1,1.436534440E-1,-7.191741377E0,7.235371434E0
1.128278229E1,-9.978415306E-1,1.848692977E-1,-5.415867723E0,5.510125913E0
1.129284529E1,-1.299374694E0,6.048679275E-1,-3.757913699E0,4.021959121E0
1.130290829E1,-2.236363667E0,1.674641101E0,-9.208914417E-1,2.941731856E0
1.131297129E1,-3.065766210E0,2.946865126E0,3.558708417E0,5.545028596E0
1.132303329E1,-3.811378884E0,4.496779855E0,9.430953661E0,1.112162421E1
1.133309629E1,-3.905448597E0,4.729619783E0,1.816104719E1,1.916886713E1
1.134315929E1,-2.609151877E0,3.539433655E0,2.577163573E1,2.614407146E1
1.135322229E1,1.244719308E0,1.215533808E-1,3.105885653E1,3.108402596E1
1.136328529E1,5.607437711E0,-4.003933835E0,3.394404814E1,3.463629958E1
1.137334729E1,8.526303445E0,-6.724040723E0,3.466583078E1,3.632671741E1
1.138341029E1,8.621200832E0,-7.031933464E0,3.385665332E1,3.563770708E1
1.139347329E1,6.504840887E0,-5.186187338E0,3.202535917E1,3.308826264E1
1.140353629E1,3.847534265E0,-2.986868268E0,2.881550675E1,2.922427640E1
1.141359829E1,1.614628057E0,-1.156491767E0,2.463947913E1,2.471939378E1
1.142366129E1,9.770235060E-2,7.194074269E-2,2.046469579E1,2.046505546E1
1.143372429E1,-8.594588399E-1,9.349022475E-1,1.725245654E1,1.729913201E1
1.144378729E1,-1.321240942E0,1.552630760E0,1.526681694E1,1.540233877E1
1.145385029E1,-1.263923610E0,1.963306297E0,1.419235715E1,1.438315251E1
1.146391229E1,-9.085297700E-1,2.204611385E0,1.363348964E1,1.384043993E1
1.147397529E1,-4.818516830E-1,2.153714297E0,1.299394458E1,1.318003270E1
1.148403829E1,6.271946434E-2,1.941533166E0,1.207537273E1,1.223062187E1
1.149410129E1,4.109734159E-1,1.817836050E0,1.087692390E1,1.103543839E1
1.150416429E1,5.859100118E-1,1.716672349E0,9.370843114E0,9.544786806E0
1.151422629E1,6.285750248E-1,1.538281986E0,7.472321189E0,7.654867862E0
1.152428929E1,6.833996151E-1,1.084069689E0,5.456100075E0,5.604575823E0
1.153435229E1,6.195307709E-1,8.773129474E-1,3.661421776E0,3.815692048E0
1.154441529E1,8.087981980E-1,6.770595523E-1,1.875785027E0,2.152006884E0
1.155447829E1,1.102517800E0,5.026966048E-1,2.080199593E-1,1.229439580E0
1.156454029E1,9.970451398E-1,7.080914567E-1,-1.442072484E0,1.890784380E0
1.157460329E1,8.285994284E-1,8.653000621E-1,-3.030040600E0,3.258292075E0
1.158466629E1,7.814885581E-1,9.763096706E-1,-4.374292674E0,4.549542981E0
1.159472929E1,7.118007841E-1,1.068964650E0,-5.554957781E0,5.701482415E0
1.160479129E1,6.774410100E-1,9.647876590E-1,-6.585524862E0,6.690207714E0
1.161485429E1,5.987558330E-1,8.242883494E-1,-7.491045143E0,7.560007749E0
1.162491729E1,4.075032762E-1,7.953634892E-1,-8.310645268E0,8.358557697E0
1.163498029E1,1.947010253E-1,5.441915900E-1,-8.947393604E0,8.966041784E0
1.164504329E1,-2.211365797E-2,3.838436875E-1,-9.457340975E0,9.465153106E0
1.165510529E1,-1.824144904E-1,2.053940113E-1,-9.844606161E0,9.848438060E0
1.166516829E1,-3.031981583E-1,5.019659221E-2,-1.017694903E1,1.018158831E1
1.167523129E1,-3.835035257E-1,-1.444186983E-1,-1.048300867E1,1.049101533E1
1.168529429E1,-5.381145787E-1,-3.760577178E-1,-1.074538844E1,1.076542426E1
1.169535729E1,-5.435532202E-1,-4.969448449E-1,-1.104555877E1,1.107008459E1
1.170541929E1,-6.098821342E-1,-8.046254057E-1,-1.110609733E1,1.115189563E1
1.171548229E1,-6.875924342E-1,-1.101059578E0,-1.115268444E1,1.122797781E1
1.172554529E1,-7.217051634E-1,-1.351024027E0,-1.115622785E1,1.126088558E1
1.173560829E1,-7.814040658E-1,-1.782300328E0,-1.109894151E1,1.126826026E1
1.174567029E1,-7.860918517E-1,-2.213755554E0,-1.105570486E1,1.130253352E1
1.175573329E1,-1.158399275E0,-2.427435618E0,-1.102432051E1,1.134768590E1
1.176579629E1,-1.434769019E0,-2.733280372E0,-1.093908799E1,1.136631117E1
1.177585929E1,-1.745252223E0,-2.892327561E0,-1.088127774E1,1.139358017E1
1.178592229E1,-1.855777171E0,-3.049179121E0,-1.084071443E1,1.141325946E1
1.179598429E1,-2.020216078E0,-3.094221978E0,-1.080578316E1,1.142017655E1
1.180604729E1,-2.049043874E0,-3.238583885E0,-1.078919344E1,1.144961578E1
1.181611029E1,-1.980573271E0,-3.257447880E0,-1.086800456E1,1.151725489E1
1.182617329E1,-1.898053271E0,-3.304676133E0,-1.096022684E1,1.160388138E1
1.183623629E1,-1.972629975E0,-3.282813978E0,-1.112182985E1,1.176279031E1
1.184629829E1,-2.151628887E0,-3.051070696E0,-1.126815876E1,1.187054932E1
1.185636129E1,-2.191407495E0,-2.947390206E0,-1.142118390E1,1.199720040E1
1.186642429E1,-2.178927783E0,-2.977230302E0,-1.151095737E1,1.208775273E1
1.187648729E1,-2.115934852E0,-2.929512637E0,-1.154658563E1,1.209887863E1
1.188654929E1,-1.972978323E0,-2.947257767E0,-1.153418953E1,1.206716619E1
1.189661229E1,-1.752217573E0,-2.922569653E0,-1.152099470E1,1.201436635E1
1.190667529E1,-1.570823495E0,-2.870284435E0,-1.150620943E1,1.196239419E1
1.191673829E1,-1.343101781E0,-2.708372403E0,-1.137238655E1,1.176734376E1
1.192679775E1,-9.714751196E-1,-2.524644409E0,-1.089252544E1,1.122339983E1
1.193685975E1,-7.597298992E-1,-2.220734206E0,-9.995396497E0,1.026726843E1
1.194692275E1,-9.067108474E-1,-1.536307819E0,-8.586867151E0,8.770214008E0
1.195698575E1,-1.544628261E0,-6.694556138E-1,-6.868676280E0,7.071970102E0
1.196704875E1,-2.931852400E0,8.134614256E-1,-5.014879707E0,5.865705112E0
1.197711175E1,-4.141650090E0,2.206915481E0,-2.153514322E0,5.163464471E0
1.198717375E1,-4.417466760E0,2.724613921E0,2.114432702E0,5.604316127E0
1.199723675E1,-3.752847963E0,2.687579119E0,8.279196603E0,9.479031900E0
1.200729975E1,-1.442954390E0,1.416571753E0,1.605158462E1,1.617844745E1
1.201736275E1,3.711394420E0,-7.757995096E-1,2.244132365E1,2.275937874E1
1.202742575E1,9.735564945E0,-2.925051504E0,2.624379138E1,2.814380460E1
1.203748775E1,1.401519120E1,-3.671804093E0,2.914565224E1,3.254806867E1
1.204755075E1,1.518674634E1,-2.463107434E0,3.076755760E1,3.439980760E1
1.205761375E1,1.331274179E1,-8.481854081E-1,3.008362983E1,3.290855962E1
1.206767675E1,9.839772853E0,7.001359543E-1,2.790791363E1,2.960005006E1
1.207773975E1,6.359399584E0,1.804364650E0,2.472063146E1,2.558920309E1
1.208780175E1,4.131033300E0,2.290455382E0,2.107093511E1,2.159388636E1
1.209786475E1,2.969572204E0,2.539843076E0,1.841564899E1,1.882565509E1
1.210792775E1,2.415924058E0,2.847180332E0,1.717861205E1,1.757975645E1
1.211799075E1,2.183833451E0,3.284393311E0,1.661534860E1,1.707706582E1
1.212805375E1,2.212027263E0,3.454469519E0,1.601822041E1,1.653510839E1
1.213811575E1,2.572247176E0,3.133978659E0,1.515981407E1,1.569261738E1
1.214817875E1,3.103734520E0,2.440691256E0,1.390610086E1,1.445578718E1
1.215824175E1,3.387918264E0,1.762064284E0,1.243226338E1,1.300553857E1
1.216830475E1,3.131322561E0,1.375009744E0,1.085944891E1,1.138523005E1
1.217836675E1,2.581246333E0,1.255006314E0,8.917252377E0,9.367777935E0
1.218842975E1,2.049908093E0,1.205451892E0,6.744486097E0,7.151456507E0
1.219849275E1,1.690637621E0,1.107236065E0,4.486588451E0,4.920742139E0
1.220855575E1,1.378329355E0,1.031265165E0,2.360202870E0,2.921276646E0
1.221861875E1,1.116332725E0,9.543916020E-1,3.943713069E-1,1.520720490E0
1.222868075E1,9.262632787E-1,8.380740374E-1,-1.337158817E0,1.829843014E0
1.223874375E1,7.172574788E-1,7.659973834E-1,-2.903586375E0,3.087397629E0
1.224880675E1,5.442249191E-1,6.739443020E-1,-4.318426622E0,4.404451177E0
1.225886975E1,4.953971601E-1,5.862566055E-1,-5.542735346E0,5.595625994E0
1.226893275E1,4.979864533E-1,4.385891942E-1,-6.545029385E0,6.578583483E0
1.227899475E1,4.786875719E-1,3.437467716E-1,-7.408708161E0,7.432110080E0
1.228905775E1,3.816786097E-1,2.385142122E-1,-8.139769161E0,8.152202745E0
1.229912075E1,1.263002966E-1,1.618754876E-1,-8.808684200E0,8.811076709E0
1.230918375E1,-2.974162853E-1,1.296681467E-1,-9.394145438E0,9.399746741E0
1.231924675E1,-6.155811229E-1,9.935194150E-2,-9.863611951E0,9.883301657E0
1.232930875E1,-7.090835099E-1,-1.652392446E-1,-1.020514431E1,1.023108371E1
1.233937175E1,-9.674455109E-1,-5.130301698E-1,-1.040111140E1,1.045859786E1
1.234943475E1,-1.087621580E0,-8.109633489E-1,-1.037300851E1,1.046135211E1
1.235949775E1,-1.011341144E0,-1.264075930E0,-1.030176253E1,1.042818345E1
1.236956075E1,-8.317846991E-1,-1.798263958E0,-1.013792472E1,1.032972103E1
1.237962275E1,-7.229362947E-1,-2.349635782E0,-9.983068228E0,1.028129741E1
1.238968575E1,-5.820445637E-1,-2.770095319E0,-9.833475401E0,1.023276319E1
1.239974875E1,-5.961856163E-1,-3.052154185E0,-9.830121439E0,1.031030407E1
1.240981175E1,-7.126286767E-1,-3.282598801E0,-9.863885601E0,1.042015037E1
1.241987475E1,-1.016250466E0,-3.571031424E0,-9.853738343E0,1.053001376E1
1.242993675E1,-1.366300170E0,-3.938966592E0,-9.781994176E0,1.063342109E1
1.243999975E1,-1.589269121E0,-4.041872617E0,-9.761997283E0,1.068452627E1
1.245006275E1,-1.816626992E0,-4.171942175E0,-9.754221071E0,1.076336675E1
1.246012575E1,-2.077110655E0,-4.370624716E0,-9.778359547E0,1.091022752E1
1.247018875E1,-2.367161349E0,-4.425909555E0,-9.811424382E0,1.102071580E1
1.248025075E1,-2.449942866E0,-4.454523489E0,-9.841708281E0,1.107719375E1
1.249031375E1,-2.433747541E0,-4.453668334E0,-9.815138533E0,1.104967118E1
1.250037675E1,-2.298536818E0,-4.174678964E0,-9.669702492E0,1.078027654E1
1.251043975E1,-2.081182364E0,-3.890682331E0,-9.186865152E0,1.019152689E1
1.252050175E1,-1.856754094E0,-3.501991594E0,-8.449959859E0,9.333450729E0
1.253056475E1,-1.782925980E0,-3.008765506E0,-7.523767916E0,8.296901745E0
1.254062775E1,-1.838317677E0,-2.531838238E0,-6.555470758E0,7.263870429E0
1.255069075E1,-2.009200947E0,-1.828860244E0,-5.715989515E0,6.328835152E0
1.256075375E1,-2.224137431E0,-8.394081527E-1,-5.195882022E0,5.713893886E0
1.257081575E1,-2.550174229E0,-1.797498411E-1,-4.649279040E0,5.305798168E0
1.258087875E1,-2.694399312E0,4.225496238E-1,-3.938168739E0,4.790355817E0
1.259094175E1,-3.071256746E0,7.052587000E-1,-2.962262599E0,4.324928617E0
1.260100475E1,-3.438973812E0,4.420623672E-1,-1.810851697E0,3.911667661E0
1.261106775E1,-3.567022865E0,8.000891358E-2,-3.570128614E-1,3.585737264E0
1.262112975E1,-3.590734786E0,-2.250676627E-1,1.030741328E0,3.742520467E0
1.263119275E1,-3.039168688E0,-4.160302708E-1,3.104095001E0,4.364061557E0
1.264125575E1,-2.538797302E0,-6.541019949E-1,6.308745739E0,6.831808982E0
1.265131875E1,-2.112919589E0,-1.251026261E0,9.499974779E0,9.812187151E0
1.266138175E1,-1.142898160E0,-1.394191681E0,1.148565062E1,1.162627012E1
1.267144375E1,3.743462013E-1,-1.440683185E0,1.250352925E1,1.259182063E1
1.268150675E1,1.721077057E0,-1.855087784E0,1.342807461E1,1.366442991E1
1.269156975E1,2.581160671E0,-1.919720421E0,1.402682014E1,1.439094855E1
1.270163275E1,2.868308369E0,-1.895158899E0,1.431189646E1,1.471900813E1
1.271169575E1,2.876032833E0,-1.702457183E0,1.407453342E1,1.446590531E1
1.272175775E1,2.655330848E0,-1.496120637E0,1.368586198E1,1.402112609E1
1.273182075E1,2.442790698E0,-1.161934721E0,1.294187629E1,1.322155364E1
1.274188375E1,2.280334729E0,-6.083754164E-1,1.181693164E1,1.205030790E1
1.275194675E1,2.107204959E0,-1.193745621E-1,1.065938993E1,1.086633134E1
1.276200975E1,1.832183656E0,3.094184263E-1,9.539177436E0,9.718464018E0
1.277207175E1,1.528891650E0,7.206319070E-1,8.270072023E0,8.441025488E0
1.278213475E1,1.141657746E0,9.911949275E-1,7.145020369E0,7.303229825E0
1.279219775E1,7.439497990E-1,1.238803680E0,6.005880434E0,6.177272509E0
1.280226075E1,4.160832611E-1,1.273868847E0,4.886409947E0,5.066840168E0
1.281232375E1,1.826180831E-1,1.294055921E0,3.712692502E0,3.935989800E0
1.282238575E1,5.682989292E-2,1.202767582E0,2.598421944E0,2.863856856E0
1.283244875E1,-2.822195180E-2,1.180419231E0,1.531981611E0,1.934206219E0
1.284251175E1,-7.776513593E-2,1.204728226E0,6.476270807E-1,1.369977500E0
1.285257475E1,-7.218994372E-2,1.304100999E0,-1.992292553E-1,1.321205169E0
1.286263775E1,-6.904838093E-2,1.451633997E0,-9.875017530E-1,1.757034050E0
1.287269975E1,-6.540375659E-2,1.604213289E0,-1.612559166E0,2.275549382E0
1.288276275E1,-7.869076844E-2,1.682205352E0,-2.114173086E0,2.702912303E0
1.289282575E1,-1.175121142E-1,1.793681787E0,-2.630362360E0,3.185892276E0
1.290288875E1,-1.311019114E-1,1.814381223E0,-3.081070420E0,3.578010881E0
1.291295175E1,-1.567052150E-1,1.707075022E0,-3.241805701E0,3.667146828E0
1.292301375E1,-2.028573613E-1,1.676534722E0,-3.418258297E0,3.812664366E0
1.293307588E1,-1.867032038E-1,1.568389884E0,-3.671784212E0,3.997086966E0
1.294313888E1,-2.086925719E-1,1.485158862E0,-3.941553108E0,4.217237287E0
1.295320188E1,-1.981906985E-1,1.456459704E0,-4.040119037E0,4.299199490E0
1.296326487E1,-7.678254789E-2,1.237456774E0,-3.735231764E0,3.935625892E0
1.297332688E1,4.155689254E-3,1.037360888E0,-3.569444489E0,3.717131804E0
1.298338988E1,-4.184285793E-3,9.279123397E-1,-3.552551299E0,3.671737947E0
1.299345288E1,4.711605974E-2,7.625859717E-1,-3.473219785E0,3.556263905E0
1.300351588E1,4.409752602E-2,5.687844674E-1,-3.253612983E0,3.303249583E0
1.301357888E1,5.795288723E-2,3.828896412E-1,-3.073121715E0,3.097424751E0
1.302364088E1,1.754493602E-1,2.553151631E-1,-2.902321038E0,2.918807242E0
1.303370388E1,2.110195810E-1,9.089723311E-2,-2.554829198E0,2.565140113E0
1.304376687E1,5.086832765E-2,-5.219151601E-3,-2.290817471E0,2.291388119E0
1.305382988E1,-9.490126021E-2,-6.771404631E-2,-2.115324987E0,2.118535164E0
1.306389288E1,-1.608786469E-1,-2.126722234E-1,-1.893389824E0,1.912076473E0
1.307395487E1,-1.568199484E-1,-4.106149451E-1,-1.487479037E0,1.551061254E0
1.308401788E1,-3.448673174E-2,-6.249314786E-1,-1.139535207E0,1.300103525E0
1.309408088E1,8.631250441E-2,-7.963987387E-1,-7.556754398E-1,1.101247552E0
1.310414388E1,1.807206251E-1,-9.159710828E-1,-3.933457053E-1,1.013106022E0
1.311420688E1,2.196682707E-1,-9.467266332E-1,-1.265080190E-1,9.800763980E-1
1.312426888E1,2.171814499E-1,-9.417875632E-1,1.280423284E-1,9.749494521E-1
1.313433188E1,2.030596932E-1,-8.720685066E-1,3.780645919E-1,9.719411273E-1
1.314439488E1,1.658541524E-1,-8.348004006E-1,6.351953155E-1,1.062013370E0
1.315445788E1,1.368295240E-1,-8.087183104E-1,7.563057697E-1,1.115681873E0
1.316452088E1,8.447216637E-2,-6.387068608E-1,6.998643512E-1,9.512581726E-1
1.317458288E1,7.473128982E-2,-5.411835995E-1,5.284584868E-1,7.600873807E-1
1.318464588E1,6.565867692E-2,-3.035148947E-1,2.620470625E-1,4.063262434E-1
1.319470888E1,-7.244144708E-2,-1.102743942E-1,-9.921964824E-2,1.650840509E-1
1.320477187E1,-2.097264692E-1,1.660843499E-1,-5.465801775E-1,6.085384899E-1
1.321483488E1,-2.740673299E-1,3.862344312E-1,-9.608694398E-1,1.071242278E0
1.322489688E1,-4.600538112E-1,5.719194520E-1,-1.385167966E0,1.567619744E0
1.323495988E1,-6.781094930E-1,8.017656787E-1,-1.858390730E0,2.134543697E0
1.324502288E1,-8.334617537E-1,9.991381507E-1,-2.345393043E0,2.682126780E0
1.325508588E1,-8.490772547E-1,1.186488056E0,-2.646876651E0,3.022357044E0
1.326514888E1,-7.614472264E-1,1.276246764E0,-2.880826673E0,3.241569064E0
1.327521088E1,-6.395890595E-1,1.422938786E0,-3.140216761E0,3.506392770E0
1.328527388E1,-5.318003167E-1,1.580809662E0,-3.383558580E0,3.772298958E0
1.329533688E1,-4.276016182E-1,1.738325904E0,-3.650114431E0,4.065458824E0
1.330539988E1,-2.349563277E-1,1.833301205E0,-3.842870818E0,4.264253031E0
1.331546288E1,-1.888244274E-1,1.836076439E0,-4.121968946E0,4.516354653E0
1.332552488E1,-2.153804344E-1,1.922512174E0,-4.407769738E0,4.813613596E0
1.333558788E1,-2.928360151E-1,1.928142166E0,-4.742157968E0,5.127528384E0
1.334565088E1,-4.090915261E-1,2.012475972E0,-5.109543790E0,5.506800628E0
1.335571388E1,-4.376513739E-1,2.215002765E0,-5.288224760E0,5.750051920E0
1.336577687E1,-4.615368113E-1,2.263315384E0,-4.972867463E0,5.483158174E0
1.337583888E1,-4.353268133E-1,2.361462653E0,-4.368512117E0,4.984968747E0
1.338590188E1,-2.586445677E-1,2.362196479E0,-3.721182659E0,4.415208896E0
1.339596488E1,-6.269823164E-2,2.177041179E0,-2.432364528E0,3.264940514E0
1.340602788E1,-2.632298081E-1,2.339826493E0,-1.195115916E0,2.640526463E0
1.341609088E1,-3.381963752E-1,2.540833302E0,8.058164835E-2,2.564508542E0
1.342615388E1,-2.964406773E-2,2.633649372E0,1.603584859E0,3.083581065E0
1.343621588E1,2.222593912E-1,2.471645538E0,3.404430801E0,4.212906358E0
1.344627887E1,7.063299099E-1,2.084681046E0,4.784412872E0,5.266441258E0
1.345634188E1,1.076858610E0,1.829114891E0,5.841875390E0,6.215528443E0
1.346640488E1,1.694749091E0,1.468528796E0,6.913132660E0,7.267747552E0
1.347646788E1,2.313566648E0,9.847456679E-1,8.110079339E0,8.490918770E0
1.348652988E1,2.646381684E0,3.989778896E-1,8.985237368E0,9.375340524E0
1.349659288E1,3.017893009E0,-1.548547723E-1,9.811005721E0,1.026584100E1
1.350665588E1,3.336078020E0,-7.962965586E-1,1.076085784E1,1.129422712E1
1.351671888E1,3.540861545E0,-1.201273984E0,1.167972439E1,1.226363410E1
1.352678187E1,4.113219758E0,-1.658769857E0,1.262760482E1,1.338381477E1
1.353684388E1,4.761324556E0,-2.236367321E0,1.379231639E1,1.476142072E1
1.354690688E1,5.683209440E0,-2.886103493E0,1.518953663E1,1.647271945E1
1.355696988E1,6.718104630E0,-3.505496415E0,1.703898756E1,1.864801683E1
1.356703288E1,7.913464959E0,-4.154970047E0,1.903351141E1,2.102763087E1
1.357709588E1,9.308486068E0,-4.829189095E0,2.076778504E1,2.326520741E1
1.358715788E1,1.054099785E1,-5.668582045E0,2.217782940E1,2.520122170E1
1.359722088E1,1.120406158E1,-5.855415788E0,2.277131244E1,2.604514465E1
1.360728387E1,1.091711766E1,-5.641898276E0,2.214118373E1,2.532284524E1
1.361734688E1,9.369063807E0,-4.757629408E0,2.042704908E1,2.297125874E1
1.362740988E1,7.190620465E0,-3.644483562E0,1.805846364E1,1.977613188E1
1.363747188E1,4.780361044E0,-2.268853574E0,1.503679684E1,1.594066521E1
1.364753488E1,2.298112603E0,-9.648803374E-1,1.168922144E1,1.195199621E1
1.365759788E1,3.376474679E-2,-9.706319511E-2,8.131264386E0,8.131913787E0
1.366766088E1,-1.678962924E0,7.313178398E-1,4.722532958E0,5.065181124E0
1.367772388E1,-2.583530256E0,8.860242024E-1,1.409193590E0,3.073352249E0
1.368778688E1,-3.222138006E0,9.122638019E-1,-1.593043499E0,3.708394014E0
1.369784888E1,-3.846162801E0,1.055936103E0,-4.225389234E0,5.810497700E0
1.370791188E1,-4.033753758E0,9.369362015E-1,-6.451499662E0,7.666215932E0
1.371797488E1,-3.815332772E0,3.191078474E-1,-7.954053406E0,8.827545500E0
1.372803788E1,-3.471364464E0,-5.169308473E-1,-8.992382081E0,9.653005969E0
1.373810087E1,-3.159480413E0,-1.042519667E0,-9.763010021E0,1.031433606E1
1.374816288E1,-2.812133583E0,-1.507602230E0,-1.049514632E1,1.096946016E1
1.375822588E1,-2.516691611E0,-1.863520200E0,-1.120017084E1,1.162971501E1
1.376828887E1,-2.612410238E0,-2.062309306E0,-1.196010540E1,1.241458529E1
1.377835188E1,-2.794965574E0,-2.142461038E0,-1.268999344E1,1.316958259E1
1.378841488E1,-2.983328071E0,-2.129486213E0,-1.340658259E1,1.389861197E1
1.379847688E1,-2.997961020E0,-2.077517475E0,-1.400500301E1,1.447217877E1
1.380853988E1,-3.088570644E0,-1.763144850E0,-1.427488008E1,1.471122529E1
1.381860288E1,-3.126980126E0,-1.643986196E0,-1.441588217E1,1.484245108E1
1.382866588E1,-3.035735495E0,-1.631280489E0,-1.440680496E1,1.481326416E1
1.383872888E1,-2.990373381E0,-1.557602648E0,-1.423646621E1,1.463029149E1
1.384879087E1,-3.010544813E0,-1.536469349E0,-1.408299317E1,1.448291458E1
1.385885388E1,-2.690727552E0,-1.820155495E0,-1.385116043E1,1.422700341E1
1.386891688E1,-2.441202302E0,-2.173083783E0,-1.358415902E1,1.397179795E1
1.387897988E1,-2.170383247E0,-2.453827318E0,-1.326722473E1,1.366569003E1
1.388904288E1,-1.896313139E0,-2.961695420E0,-1.295702994E1,1.342580605E1
1.389910488E1,-1.632664378E0,-3.455508277E0,-1.264636269E1,1.321123082E1
1.390916788E1,-1.297619360E0,-3.931128107E0,-1.233181523E1,1.300812251E1
1.391923088E1,-9.718798200E-1,-4.340525004E0,-1.205271360E1,1.284728036E1
1.392929463E1,-6.278879770E-1,-4.711370623E0,-1.183105735E1,1.275010488E1
1.393935763E1,-3.673004160E-1,-4.881046004E0,-1.166912339E1,1.265416770E1
1.394941963E1,-3.667806351E-1,-4.535494562E0,-1.159388375E1,1.245485365E1
1.395948263E1,-5.862926390E-1,-3.729709361E0,-1.163542354E1,1.223264289E1
1.396954563E1,-9.463662254E-1,-3.196658472E0,-1.173799072E1,1.220223998E1
1.397960862E1,-1.611831919E0,-3.300902340E0,-1.168447701E1,1.224830442E1
1.398967163E1,-1.910709862E0,-3.280297921E0,-1.186345794E1,1.245603472E1
1.399973463E1,-1.664792636E0,-3.468853084E0,-1.204303061E1,1.264274743E1
1.400979663E1,-1.225554985E0,-3.738738340E0,-1.230682657E1,1.292045393E1
1.401985963E1,-9.573390372E-1,-3.734540623E0,-1.259510132E1,1.317193490E1
1.402992263E1,-7.333705048E-1,-3.689120037E0,-1.285458906E1,1.339357677E1
1.403998563E1,-5.023439446E-1,-3.580437840E0,-1.298191569E1,1.347597935E1
1.405004863E1,-2.643815634E-1,-3.320551908E0,-1.311333303E1,1.352979917E1
1.406011062E1,6.149969861E-2,-3.223131740E0,-1.279697410E1,1.319677637E1
1.407017363E1,1.772991268E-1,-3.168169375E0,-1.220396937E1,1.260974229E1
1.408023663E1,1.934777878E-1,-2.832904063E0,-1.143334377E1,1.178066759E1
1.409029963E1,3.855740979E-1,-2.347039618E0,-9.978067689E0,1.025763604E1
1.410036263E1,9.869602277E-1,-2.018422444E0,-7.912966776E0,8.225762144E0
1.411042463E1,1.131887049E0,-1.563277078E0,-5.206724514E0,5.552925686E0
1.412048763E1,8.565163748E-1,-1.191504529E0,-2.391871975E0,2.806128095E0
1.413055063E1,8.020290957E-1,-7.753546827E-1,6.889552009E-1,1.311138751E0
1.414061363E1,9.782111120E-1,1.445577890E-3,4.527775068E0,4.632239862E0
1.415067663E1,1.662788210E0,3.174220951E-1,8.869623297E0,9.029719755E0
1.416073863E1,2.494794957E0,6.865844473E-2,1.305522340E1,1.329163548E1
1.417080163E1,3.630909251E0,3.204509528E-1,1.727104834E1,1.765149573E1
1.418086463E1,5.768651294E0,4.992520832E-1,2.110623124E1,2.188605921E1
1.419092763E1,8.011955459E0,1.843996932E-1,2.447347667E1,2.575221338E1
1.420099063E1,1.009592183E1,-2.660907776E-1,2.654993990E1,2.840594569E1
1.421105363E1,1.160773230E1,-5.226918896E-1,2.824808827E1,3.054451091E1
1.422111562E1,1.227944757E1,-7.812339849E-1,2.965025292E1,3.210191049E1
1.423117863E1,1.178296751E1,-7.069137543E-2,2.983981497E1,3.208204916E1
1.424124163E1,1.064194418E1,6.686277942E-1,3.036589598E1,3.218362437E1
1.425130463E1,8.632533905E0,1.092315359E0,3.080064816E1,3.200615131E1
1.426136763E1,6.151301272E0,1.527687123E0,2.996476997E1,3.062776150E1
1.427142963E1,4.457335415E0,1.438492818E0,2.889817936E1,2.927527747E1
1.428149263E1,3.671407359E0,8.185677259E-1,2.803333875E1,2.828457824E1
1.429155563E1,3.396738789E0,4.190133740E-1,2.670313695E1,2.692156997E1
1.430161863E1,3.473261593E0,1.217391852E-1,2.457123744E1,2.481580295E1
1.431168163E1,3.614547864E0,-2.040816403E-1,2.204584839E1,2.234112882E1
1.432174363E1,3.556802517E0,-3.807862515E-1,1.931023556E1,1.963876371E1
1.433180663E1,3.208510778E0,-4.787974995E-1,1.616296940E1,1.648530765E1
1.434186963E1,2.853014684E0,-6.889817327E-1,1.271074054E1,1.304520270E1
1.435193262E1,2.706047257E0,-9.808245251E-1,9.176666438E0,9.617479681E0
1.436199563E1,2.386793814E0,-1.164667490E0,5.710937521E0,6.298257096E0
1.437205863E1,1.976668062E0,-1.405009615E0,2.485073669E0,3.472298919E0
1.438212062E1,1.832287590E0,-1.736971250E0,-4.731777406E-1,2.568704754E0
1.439218363E1,1.815211966E0,-1.919045798E0,-3.075284600E0,4.054023511E0
1.440224663E1,1.827894577E0,-2.219454835E0,-5.226444249E0,5.965140219E0
1.441230963E1,1.799874866E0,-2.354731777E0,-7.107282439E0,7.700504850E0
1.442237263E1,2.084268671E0,-2.552173685E0,-8.451106498E0,9.070775460E0
1.443243463E1,2.323835820E0,-2.494880327E0,-9.474024836E0,1.006885234E1
1.444249763E1,2.877173917E0,-2.610171924E0,-1.027484195E1,1.098469409E1
1.445256063E1,3.405255843E0,-2.838886934E0,-1.102650035E1,1.188439129E1
1.446262363E1,4.320174647E0,-3.354402609E0,-1.191291369E1,1.310852541E1
1.447268663E1,4.914891150E0,-4.059800765E0,-1.274174715E1,1.424746496E1
1.448274863E1,5.251149319E0,-4.595753628E0,-1.331051283E1,1.502881474E1
1.449281163E1,5.212720249E0,-5.169222811E0,-1.407987894E1,1.587880058E1
1.450287463E1,5.058254353E0,-5.461450278E0,-1.444849560E1,1.625338123E1
1.451293762E1,4.895498275E0,-5.516152734E0,-1.468814491E1,1.643579767E1
1.452300063E1,4.702302176E0,-5.632867252E0,-1.525102478E1,1.692437875E1
1.453306363E1,4.429965768E0,-5.715972558E0,-1.567714530E1,1.726469878E1
1.454312563E1,3.807863246E0,-5.426564620E0,-1.623890719E1,1.753994107E1
1.455318863E1,3.559565034E0,-5.185182202E0,-1.664588392E1,1.779443928E1
1.456325163E1,3.458124613E0,-5.071035782E0,-1.681019770E1,1.789571950E1
1.457331463E1,3.130969389E0,-4.900421923E0,-1.693891948E1,1.790932990E1
1.458337763E1,2.791816263E0,-4.868947238E0,-1.714429240E1,1.803961328E1
1.459343963E1,2.557638492E0,-4.917555726E0,-1.732315171E1,1.818833291E1
1.460350263E1,2.225624817E0,-5.042344664E0,-1.740535538E1,1.825719150E1
1.461356563E1,1.895865828E0,-5.109432693E0,-1.724121000E1,1.808203340E1
1.462362863E1,1.676229205E0,-5.208656434E0,-1.681118939E1,1.767925154E1
1.463369163E1,1.424320922E0,-4.962571685E0,-1.634963007E1,1.714544287E1
1.464375363E1,1.520157956E0,-4.696867189E0,-1.575577632E1,1.651108504E1
1.465381663E1,1.757653729E0,-4.553509249E0,-1.514540185E1,1.591247907E1
1.466387963E1,1.931672422E0,-4.403937473E0,-1.451966090E1,1.529531223E1
1.467394262E1,1.921776740E0,-4.098005303E0,-1.401650565E1,1.472919903E1
1.468400563E1,1.918950343E0,-3.727514609E0,-1.351602141E1,1.415130985E1
1.469406863E1,1.984293855E0,-3.187741175E0,-1.293431116E1,1.346831546E1
1.470413063E1,2.110779654E0,-2.677528048E0,-1.238715094E1,1.284780354E1
1.471419363E1,2.209589559E0,-2.322393166E0,-1.187628907E1,1.230130229E1
1.472425663E1,2.117149903E0,-1.894064885E0,-1.137042773E1,1.171991605E1
1.473431963E1,1.862189812E0,-1.455168493E0,-1.066600430E1,1.092469286E1
1.474438263E1,1.453889561E0,-1.195830153E0,-9.155985421E0,9.347506279E0
1.475444462E1,-9.152551644E-2,2.974398934E-1,-7.023636265E0,7.030527277E0
1.476450763E1,-1.946468947E0,2.041962604E0,-3.478523794E0,4.478669493E0
1.477457063E1,-4.206391923E0,3.380144099E0,1.397280473E0,5.574181542E0
1.478463363E1,-5.360533767E0,3.423355315E0,7.217907667E0,9.620440477E0
1.479469663E1,-4.625904211E0,2.223416908E0,1.365812863E1,1.459064941E1
1.480475863E1,-1.974039446E0,8.878999892E-1,2.152639812E1,2.163494891E1
1.481482163E1,1.501138279E0,-1.387269748E0,2.985639768E1,2.992628303E1
1.482488463E1,4.793041608E0,-3.267552161E0,3.678058859E1,3.723522314E1
1.483494763E1,7.787171533E0,-5.714155244E0,4.227722157E1,4.336652020E1
1.484501063E1,9.385803216E0,-8.588925955E0,4.532830805E1,4.707991569E1
1.485507363E1,9.788029672E0,-1.057657933E1,4.551293037E1,4.773988256E1
1.486513563E1,8.905047483E0,-1.143594344E1,4.385987105E1,4.619273711E1
1.487519863E1,7.391269425E0,-1.101265064E1,4.060373441E1,4.271501593E1
1.488526163E1,6.047192182E0,-9.592164320E0,3.597404471E1,3.771882876E1
1.489532463E1,4.706056966E0,-7.394528078E0,3.081104919E1,3.203352571E1
1.490538763E1,3.490222903E0,-4.942215189E0,2.590848163E1,2.660557399E1
1.491544962E1,2.527470075E0,-2.618024735E0,2.157065453E1,2.187544960E1
1.492551263E1,1.565110180E0,-8.255438197E-1,1.767806016E1,1.776639816E1
1.493557913E1,5.321715418E-1,4.607547462E-1,1.386720869E1,1.388506314E1
1.494564213E1,-7.854067773E-2,1.231614528E0,1.039025195E1,1.046328718E1
1.495570513E1,-2.400497641E-1,1.574587055E0,7.589907526E0,7.755233365E0
1.496576813E1,-2.053323597E-1,1.840597945E0,5.177270919E0,5.498554023E0
1.497583013E1,9.592788510E-2,2.138797173E0,2.907096459E0,3.610382989E0
1.498589313E1,5.674740332E-1,2.294256510E0,8.090915090E-1,2.498052999E0
1.499595613E1,1.197059311E0,2.435135377E0,-1.020694642E0,2.899077931E0
1.500601913E1,2.068102874E0,2.572326698E0,-2.616135499E0,4.211659897E0
1.501608213E1,2.871236070E0,2.419129648E0,-4.009983072E0,5.493282176E0
1.502614413E1,3.305035737E0,2.369550814E0,-5.413982581E0,6.771206663E0
1.503620712E1,3.497055960E0,1.988326094E0,-6.653128030E0,7.774763895E0
1.504627013E1,3.583412903E0,1.189804890E0,-7.645740834E0,8.527240856E0
1.505633313E1,3.433866854E0,2.080253680E-1,-8.319040700E0,9.002286060E0
1.506639613E1,3.369296344E0,-9.007321425E-1,-8.725081295E0,9.396303521E0
1.507645813E1,3.179645705E0,-2.137797883E0,-9.114469605E0,9.887056325E0
1.508652113E1,2.812106102E0,-2.856206387E0,-9.603720172E0,1.040659871E1
1.509658413E1,2.585135609E0,-3.307105651E0,-1.045451285E1,1.126573180E1
1.510664713E1,2.657060747E0,-3.818826191E0,-1.136297487E1,1.227846094E1
1.511671013E1,3.183250806E0,-4.219450217E0,-1.227292792E1,1.336269455E1
1.512677313E1,3.555325510E0,-4.591946506E0,-1.284390619E1,1.409582344E1
1.513683513E1,3.418227307E0,-4.905445558E0,-1.320352984E1,1.449416690E1
1.514689813E1,3.249678684E0,-5.175058917E0,-1.346400926E1,1.478584430E1
1.515696113E1,3.016638489E0,-5.567774878E0,-1.358807899E1,1.499120127E1
1.516702412E1,2.894726966E0,-6.001552910E0,-1.376476080E1,1.529270157E1
1.517708713E1,2.762766126E0,-6.578830385E0,-1.393790738E1,1.565819747E1
1.518714913E1,2.651942094E0,-7.311783544E0,-1.414461113E1,1.614202588E1
1.519721213E1,2.466067587E0,-7.802640342E0,-1.438540649E1,1.655000319E1
1.520727513E1,2.258872231E0,-8.133422009E0,-1.463849854E1,1.689794948E1
1.521733813E1,2.005096786E0,-8.281257162E0,-1.483133620E1,1.710462414E1
1.522740113E1,1.710526633E0,-8.372707030E0,-1.505578274E1,1.731198193E1
1.523746313E1,1.343317397E0,-8.350572395E0,-1.507216430E1,1.728313333E1
1.524752613E1,1.137819780E0,-8.301837022E0,-1.493089557E1,1.712152956E1
1.525758913E1,1.097092754E0,-8.166309088E0,-1.465901291E1,1.681603033E1
1.526765213E1,1.136266760E0,-7.926235278E0,-1.441076820E1,1.648595002E1
1.527771513E1,1.441443616E0,-7.855915493E0,-1.409788018E1,1.620319085E1
1.528777713E1,1.821595956E0,-7.782268642E0,-1.383643012E1,1.597900859E1
1.529784013E1,2.097645200E0,-7.587178631E0,-1.367888508E1,1.578218274E1
1.530790313E1,2.005021942E0,-7.365653358E0,-1.340123122E1,1.542290376E1
1.531796613E1,1.349461797E0,-7.310704733E0,-1.293497541E1,1.491915010E1
1.532802912E1,2.749503326E-1,-6.865881311E0,-1.222844582E1,1.402678905E1
1.533809213E1,-7.669043597E-1,-5.973886224E0,-1.152903462E1,1.300746318E1
1.534815413E1,-1.670198679E0,-5.045033798E0,-1.113071528E1,1.233429172E1
1.535821713E1,-2.486768777E0,-3.760127162E0,-1.110243580E1,1.198276496E1
1.536828013E1,-3.556033608E0,-2.185203892E0,-1.163698592E1,1.236284483E1
1.537834313E1,-4.677136930E0,-4.701979995E-1,-1.233497507E1,1.320031462E1
1.538840613E1,-5.912312120E0,1.602736721E0,-1.229540696E1,1.373685670E1
1.539846813E1,-6.587258561E0,3.840786871E0,-1.041974063E1,1.291180134E1
1.540853112E1,-7.232072546E0,6.709218031E0,-3.983855959E0,1.063896556E1
1.541859413E1,-8.989834449E0,7.951495249E0,7.118856418E0,1.395426518E1
1.542865713E1,-6.218812639E0,6.053398417E0,1.487653752E1,1.722291008E1
1.543872013E1,2.369865394E0,2.322384249E0,2.396802230E1,2.419660769E1
1.544878213E1,1.381787340E1,-1.729034825E0,3.520420966E1,3.785841471E1
1.545884513E1,2.160843924E1,-2.671718547E0,4.395852528E1,4.905522063E1
1.546890813E1,2.099677604E1,3.875398587E-1,4.615527742E1,5.070822838E1
1.547897113E1,1.746419357E1,3.049853013E0,4.537899171E1,4.871911893E1
1.548903412E1,1.292187297E1,3.224748203E0,4.217806214E1,4.423078937E1
1.549909713E1,9.011986626E0,2.220521805E0,3.717516104E1,3.831630487E1
1.550915913E1,5.863735791E0,1.825217429E0,3.211755105E1,3.269941745E1
1.551922213E1,3.208961598E0,1.885249769E0,2.808288104E1,2.832842757E1
1.552928513E1,1.283750934E0,2.123156017E0,2.472144072E1,2.484563219E1
1.553934813E1,7.091522878E-1,1.513297272E0,2.198913274E1,2.205254915E1
1.554941113E1,7.657721195E-1,8.340311263E-1,1.977271290E1,1.980510516E1
1.555947313E1,1.104945272E0,5.999589707E-1,1.799247547E1,1.803635297E1
1.556953612E1,1.550048338E0,9.242413116E-1,1.653439623E1,1.663259242E1
1.557959913E1,2.089554554E0,1.050118051E0,1.530290011E1,1.548056000E1
1.558966213E1,2.821786752E0,1.160451575E0,1.375472113E1,1.408905539E1
1.559972513E1,3.248257226E0,9.812653320E-1,1.181030792E1,1.228810114E1
1.560978813E1,3.277608202E0,2.432289684E-1,9.236401008E0,9.803722734E0
1.561985013E1,3.112285196E0,-6.195290168E-1,6.427367619E0,7.168067372E0
1.562991313E1,2.890668706E0,-1.426595489E0,3.576691529E0,4.814962362E0
1.563997613E1,2.381791375E0,-2.087794834E0,7.876702344E-1,3.263777232E0
1.565003913E1,1.660958763E0,-2.709857303E0,-1.889246487E0,3.697480616E0
1.566010213E1,7.944756626E-1,-3.247702033E0,-4.292272611E0,5.440805477E0
1.567016413E1,3.930279091E-2,-3.659266493E0,-6.575967588E0,7.525631249E0
1.568022713E1,-6.718496101E-1,-3.813016105E0,-8.553653212E0,9.389113748E0
1.569029013E1,-4.659040967E-1,-4.403469988E0,-9.976646816E0,1.091517733E1
1.570035313E1,3.311914109E-1,-5.694105141E0,-1.156066689E1,1.289114192E1
1.571041613E1,1.033554935E0,-7.045760375E0,-1.321658784E1,1.501296670E1
1.572047813E1,8.667854011E-1,-7.885963749E0,-1.446196291E1,1.649509359E1
1.573054112E1,-2.241178557E-1,-7.869585114E0,-1.560726757E1,1.748048625E1
1.574060413E1,-9.210183263E-1,-7.864267656E0,-1.683611373E1,1.860509893E1
1.575066713E1,-1.207257440E0,-8.372906420E0,-1.793680179E1,1.983158821E1
1.576073013E1,-1.464781608E0,-8.672757486E0,-1.883980368E1,2.079183758E1
1.577079213E1,-1.534693257E0,-8.921029093E0,-1.956471575E1,2.155732232E1
1.578085513E1,-1.446525723E0,-9.276234580E0,-1.988993086E1,2.199432460E1
1.579091813E1,-1.443175853E0,-9.627432970E0,-2.002250595E1,2.226366921E1
1.580098113E1,-1.267979239E0,-9.819509912E0,-1.989902445E1,2.222614947E1
1.581104413E1,-1.062934051E0,-9.740820422E0,-1.963243118E1,2.194187242E1
1.582110713E1,-9.312515384E-1,-9.475541604E0,-1.921908683E1,2.144822642E1
1.583116913E1,-7.287001875E-1,-8.852419034E0,-1.874488933E1,2.074288319E1
1.584123213E1,-2.829020342E-1,-8.061241055E0,-1.823205110E1,1.993668298E1
1.585129513E1,5.413271852E-1,-7.471319561E0,-1.769086907E1,1.921146792E1
1.586135812E1,1.190562689E0,-6.683029522E0,-1.711769108E1,1.841455052E1
1.587142113E1,1.854839716E0,-6.071240026E0,-1.650311597E1,1.768200279E1
1.588148313E1,2.272160467E0,-5.606405677E0,-1.586353466E1,1.697781581E1
1.589154612E1,2.779682121E0,-5.208263501E0,-1.538903428E1,1.648256707E1
1.590160913E1,3.157040954E0,-4.978357998E0,-1.468729355E1,1.582616656E1
1.591167213E1,3.523647342E0,-4.878873179E0,-1.416373737E1,1.538931286E1
1.592173513E1,3.915492067E0,-4.932825145E0,-1.367096093E1,1.505187745E1
1.593179312E1,4.233567150E0,-4.855606815E0,-1.309634102E1,1.459500450E1
1.594185613E1,4.418843780E0,-4.747642656E0,-1.254148469E1,1.411931760E1
1.595191913E1,4.335771217E0,-4.512834848E0,-1.174549153E1,1.330868745E1
1.596198213E1,4.158929489E0,-4.258559319E0,-1.068762029E1,1.223344798E1
1.597204513E1,3.681316928E0,-3.691101366E0,-9.533465876E0,1.086569350E1
1.598210713E1,3.496800729E0,-3.511852047E0,-7.851775664E0,9.284993334E0
1.599217013E1,2.467555703E0,-3.741445893E0,-4.278470258E0,6.196172711E0
1.600223313E1,1.864855996E0,-3.556472734E0,3.177692735E-1,4.028295360E0
1.601229613E1,1.281415702E0,-3.760225688E0,3.335675147E0,5.187297187E0
1.602235913E1,1.254562364E0,-4.861698444E0,6.325136070E0,8.075728128E0
1.603242213E1,6.319987158E-1,-3.916818508E0,1.066771871E1,1.138161289E1
1.604248413E1,-1.018774709E0,-2.498288376E0,1.816214530E1,1.836145061E1
1.605254713E1,-3.900517348E0,-3.207025877E0,2.538459683E1,2.588197842E1
1.606261012E1,-6.409841759E0,-3.388569059E0,3.080692105E1,3.164861539E1
1.607267313E1,-7.061512774E0,-4.940533530E0,3.557416533E1,3.660321124E1
1.608273613E1,-5.302658612E0,-7.701317450E0,3.983454957E1,4.091723131E1
1.609279812E1,6.111290529E-2,-1.121922926E1,4.204362764E1,4.351484189E1
1.610286113E1,6.315551314E0,-1.321750351E1,4.134609223E1,4.386442671E1
1.611292413E1,9.385679255E0,-1.041583937E1,4.195629830E1,4.423699416E1
1.612298713E1,8.504992683E0,-6.085677971E0,4.161852571E1,4.291237652E1
1.613305013E1,7.418629131E0,-2.813907921E0,3.947414590E1,4.026366018E1
1.614311213E1,6.027407543E0,-5.083820719E-1,3.470305182E1,3.522626718E1
1.615317513E1,4.179493854E0,1.945234162E-1,2.847594491E1,2.878168596E1
1.616323813E1,2.356467523E0,2.367376819E-1,2.277279997E1,2.289561972E1
1.617330113E1,1.245538064E-1,4.301983666E-1,1.855742760E1,1.856283123E1
1.618336413E1,-1.694658751E0,8.030963588E-1,1.535037015E1,1.546449791E1
1.619342713E1,-2.416251795E0,9.688137594E-1,1.237240193E1,1.264330662E1
1.620348913E1,-2.353500207E0,7.819373319E-1,9.796367217E0,1.010540449E1
1.621355213E1,-1.950031071E0,3.542187694E-1,7.396347731E0,7.657287501E0
1.622361512E1,-1.101564704E0,-2.949803352E-1,5.299142096E0,5.420458020E0
1.623367813E1,-7.679937690E-2,-9.215765161E-1,3.333583598E0,3.459476987E0
1.624374113E1,8.147081982E-1,-1.582277313E0,1.461372389E0,2.302815712E0
1.625380313E1,1.681976872E0,-2.491029058E0,-3.307419062E-1,3.023848901E0
1.626386613E1,2.623875459E0,-3.481718128E0,-1.859960707E0,4.739887908E0
1.627392913E1,3.667499957E0,-4.434482743E0,-3.312474564E0,6.639855486E0
1.628399213E1,4.070784175E0,-5.002088338E0,-4.734581146E0,8.000526868E0
1.629405513E1,4.244779186E0,-5.197927963E0,-6.438143452E0,9.299800888E0
1.630411713E1,4.713941936E0,-5.586498247E0,-8.056620585E0,1.087838897E1
1.631418013E1,4.877078668E0,-6.080287423E0,-9.592047375E0,1.235973965E1
1.632424313E1,4.957157164E0,-6.380077093E0,-1.150032480E1,1.405475938E1
1.633430613E1,5.321019453E0,-6.821682208E0,-1.321768478E1,1.579733481E1
1.634436913E1,5.801871665E0,-7.360340577E0,-1.446655415E1,1.723709712E1
1.635443113E1,5.918285050E0,-7.942953637E0,-1.533944521E1,1.825966018E1
1.636449413E1,5.808856164E0,-8.702071917E0,-1.610722672E1,1.920707209E1
1.637455713E1,5.444572874E0,-9.032873465E0,-1.706046789E1,2.005731142E1
1.638462012E1,4.807823369E0,-8.847221444E0,-1.799331981E1,2.061911857E1
1.639468313E1,3.995061563E0,-8.845442137E0,-1.870519609E1,2.107336528E1
1.640474613E1,3.239945117E0,-8.853842247E0,-1.916537431E1,2.135882345E1
1.641480813E1,2.514412658E0,-8.946184984E0,-1.924458771E1,2.137078971E1
1.642487113E1,2.005181571E0,-9.267295942E0,-1.892768967E1,2.116981255E1
1.643493413E1,1.526328961E0,-9.446482111E0,-1.846212968E1,2.079461316E1
1.644499713E1,1.269770241E0,-9.566451774E0,-1.805755147E1,2.047448366E1
1.645506013E1,1.342296473E0,-9.812865136E0,-1.806175211E1,2.059905268E1
1.646512212E1,1.669952219E0,-1.003753855E1,-1.808169229E1,2.074821719E1
1.647518513E1,1.943585832E0,-9.886798500E0,-1.816243766E1,2.077018180E1
1.648524813E1,2.197003573E0,-9.472406327E0,-1.807477152E1,2.052439212E1
1.649531113E1,2.384288429E0,-8.998469617E0,-1.778743818E1,2.007611127E1
1.650537413E1,2.669010409E0,-8.262481753E0,-1.739840421E1,1.944470854E1
1.651543613E1,2.911659918E0,-7.302117512E0,-1.681911354E1,1.856559355E1
1.652549913E1,3.216470885E0,-6.442147041E0,-1.612744874E1,1.766186701E1
1.653556213E1,3.548523737E0,-5.839961597E0,-1.530383801E1,1.676020972E1
1.654562512E1,3.917712840E0,-5.442574296E0,-1.449798410E1,1.597377951E1
1.655568813E1,4.139788336E0,-4.995147693E0,-1.366198780E1,1.512412836E1
1.656575113E1,3.800299580E0,-4.278956162E0,-1.300440408E1,1.420796495E1
