"Time (s)","Linear Acceleration x (m/s^2)","Linear Acceleration y (m/s^2)","Linear Acceleration z (m/s^2)","Absolute acceleration (m/s^2)"
1.794291660E-3,-1.038625714E0,-4.059107870E-2,-6.328628612E-1,1.216924981E0
1.171829167E-2,-1.449293211E0,-4.915493998E-1,-8.582636690E-1,1.754619089E0
2.164129168E-2,-1.749695376E0,-1.909721097E-1,-8.532479274E-1,1.956000072E0
3.156429168E-2,-1.845477447E0,2.016277832E-1,-7.857669657E-1,2.015904386E0
4.148729169E-2,-1.601809352E0,6.512637565E-1,-5.060583884E-1,1.801674991E0
5.141029169E-2,-1.381277521E0,1.087806060E0,-3.158426160E-1,1.786338762E0
6.133329170E-2,-1.297245138E0,1.140356741E0,-5.189006281E-1,1.803473401E0
7.125729171E-2,-1.051421468E0,8.512265450E-1,-1.208646373E0,1.814083732E0
8.118029172E-2,-5.627143997E-1,1.319663948E-1,-2.193350818E0,2.268226275E0
9.110329160E-2,-3.384514600E-1,-8.248491704E-1,-2.898323881E0,3.032359950E0
1.010262916E-1,-8.729841806E-1,-1.416045942E0,-2.326670258E0,2.860189151E0
1.109492916E-1,-1.646113121E0,-1.623587599E0,-6.971494889E-1,2.414900103E0
1.208722916E-1,-1.552056271E0,-1.188235497E0,3.022437465E-1,1.977911411E0
1.307962916E-1,-8.088902186E-1,-5.157589191E-1,1.264337593E-1,9.676239682E-1
1.407192916E-1,6.129987001E-2,-1.407445273E-1,-2.145477909E-1,2.638132874E-1
1.506422916E-1,9.604980686E-1,4.077702016E-4,5.141316390E-1,1.089443917E0
1.605652916E-1,2.274879861E0,5.290838465E-1,1.913531728E0,3.019372745E0
1.704882917E-1,2.633718662E0,1.163913199E0,3.960922594E0,4.896945550E0
1.804122917E-1,2.810965017E0,1.077795042E0,4.986082755E0,5.824447417E0
1.903352917E-1,3.229140632E0,2.863890944E-1,4.794936106E0,5.787985849E0
2.002582917E-1,2.822402171E0,-1.000424246E0,3.313745164E0,4.466285896E0
2.101812917E-1,1.772670256E0,-2.518827891E0,7.193040043E-1,3.162949894E0
2.201042917E-1,3.436670302E-1,-2.814770093E0,-1.773007933E0,3.344337727E0
2.300272917E-1,-6.514999840E-1,-2.217249996E0,-2.883615795E0,3.695387642E0
2.399512917E-1,-1.244445950E0,-1.099933404E0,-2.403375787E0,2.921423350E0
2.498742917E-1,-1.006646414E0,7.405352443E-3,-1.594131081E0,1.885376818E0
2.597972917E-1,1.059151487E-1,1.045343945E0,-1.331209275E0,1.695900975E0
2.697202917E-1,1.221766794E0,1.517966419E0,-1.296312507E0,2.340376522E0
2.796432916E-1,7.158145322E-1,4.520261689E-1,1.309301512E0,1.559162773E0
2.895662916E-1,1.715706097E0,-1.608494620E0,2.085761465E0,3.143454030E0
2.994902916E-1,4.061778293E0,-2.374345092E0,5.233877814E-1,4.733866526E0
3.094132916E-1,3.598440247E0,-1.800242948E0,-5.913944077E-1,4.066865406E0
3.193362916E-1,3.169835539E0,-8.786605114E-1,-4.648599594E0,5.694679958E0
3.292592916E-1,3.701695059E0,-7.088352956E-1,-6.726255648E0,7.710221062E0
3.391822916E-1,2.675632088E0,-1.127821772E0,-6.493170429E0,7.112823015E0
3.491062917E-1,2.377858977E0,-1.084120998E0,-5.365878707E0,5.968432453E0
3.590302083E-1,1.960588073E0,-4.139300971E-1,-3.866657292E0,4.355029544E0
3.689532083E-1,2.027310651E0,-7.731969139E-1,-3.231536236E0,3.892383381E0
3.788762083E-1,1.953625208E0,-1.738365811E0,-2.528791546E0,3.637767699E0
3.887992083E-1,1.483080177E0,-2.593776039E0,-1.472975603E0,3.331194693E0
3.987222083E-1,4.750409558E-1,-3.096888893E0,-1.234639585E0,3.367598496E0
4.086462084E-1,-3.412495573E0,-3.080799109E0,-2.895923014E0,5.433490526E0
4.185692084E-1,-6.794063469E0,-2.348680055E0,-4.902490375E0,8.701149826E0
4.284922084E-1,-1.143423021E-3,-2.916520416E0,-6.181264159E0,6.834772802E0
4.384152084E-1,3.487249887E0,-2.707886792E0,-5.770093217E0,7.265503312E0
4.483382084E-1,3.028570025E0,-2.441670957E0,-4.268636996E0,5.775400874E0
4.582612084E-1,2.470152744E0,-3.658516880E0,-3.518204169E0,5.644834888E0
4.681852083E-1,1.693185253E0,-5.386087854E0,-2.408010290E0,6.138023479E0
4.781082083E-1,2.352872801E0,-5.950566359E0,-1.150525634E0,6.501458270E0
4.880312083E-1,9.828923929E-1,-5.424619836E0,-1.111115985E0,5.623802677E0
4.979542083E-1,-9.525494367E-1,-4.482173803E0,-9.781198955E-1,4.685504344E0
5.078772083E-1,-1.818206910E0,-4.424632523E0,-7.442055416E-1,4.841186964E0
5.178002083E-1,-2.469383835E0,-5.601278839E0,-1.761294206E0,6.369798932E0
5.277242083E-1,-2.812696670E0,-6.958853794E0,-2.333486357E0,7.860156949E0
5.376472083E-1,-3.429531144E0,-7.646367656E0,-1.969952096E0,8.608677800E0
5.475702083E-1,-3.640946581E0,-7.379441092E0,-3.921487802E-1,8.238108005E0
5.574932083E-1,-3.267906502E0,-6.977730945E0,1.158578127E0,7.791677953E0
5.674162083E-1,-2.394817218E0,-7.066218613E0,3.240046273E0,8.134156063E0
5.773402083E-1,-9.743981427E-1,-7.091448179E0,5.329317237E0,8.924108428E0
5.872632083E-1,4.448941737E-1,-6.880589982E0,6.813749290E0,9.693690149E0
5.971862084E-1,2.401416970E0,-5.884881077E0,6.874791298E0,9.362765838E0
6.071092084E-1,4.764339380E0,-3.672044121E0,5.144664506E0,7.915201238E0
6.170322084E-1,7.296334031E0,-9.872894990E-1,3.100591934E0,7.989048829E0
6.269552084E-1,1.031833705E1,2.154618276E0,1.554952397E0,1.065496768E1
6.368792084E-1,1.256610381E1,4.951902856E0,1.212002017E0,1.356087223E1
6.468022083E-1,1.328620947E1,6.773681245E0,1.356575081E0,1.497485945E1
6.567252083E-1,1.244485361E1,7.562900407E0,1.573945323E0,1.464749630E1
6.666482083E-1,1.141203184E1,7.794152523E0,1.110161573E0,1.386418923E1
6.765712083E-1,1.061686080E1,7.984024479E0,4.501348870E-1,1.329153872E1
6.864952083E-1,9.808101409E0,8.190663326E0,4.061544697E-1,1.278478707E1
6.964182083E-1,8.680769341E0,8.361768059E0,-2.125135446E-1,1.205487799E1
7.063412083E-1,7.473599390E0,8.582877595E0,-1.589800048E0,1.149121142E1
7.162642083E-1,5.843113831E0,8.733814112E0,-3.209013346E0,1.098723145E1
7.261872083E-1,4.055628777E0,8.319239506E0,-4.864785190E0,1.045581205E1
7.361102083E-1,2.945933665E0,7.495249291E0,-5.848682719E0,9.953108893E0
7.460342083E-1,1.771430939E0,6.276693642E0,-6.119773085E0,8.943515710E0
7.559572083E-1,1.003438924E0,5.135771475E0,-5.316594865E0,7.459840433E0
7.658802083E-1,1.207604399E0,4.438852367E0,-4.317406867E0,6.308860497E0
7.758032084E-1,1.757990529E0,3.294067822E0,-7.315105348E0,8.212927600E0
7.857262084E-1,6.998965108E-1,-1.248536955E0,-2.040987230E1,2.045999968E1
7.956492084E-1,-3.071312587E0,1.108385335E0,-1.288524250E1,1.329251494E1
8.055732084E-1,-2.329220814E0,4.691825720E0,-5.470812839E0,7.574185851E0
8.154962084E-1,-4.737133455E-1,3.855905432E0,-4.119507269E0,5.662398005E0
8.254192084E-1,1.343006033E-1,3.383641611E0,-3.118758064E0,4.603663657E0
8.353422083E-1,-1.026370534E0,2.423084997E0,-3.792206449E0,4.615799728E0
8.452652083E-1,-2.311785586E0,2.502890720E0,-3.709308718E0,5.036644291E0
8.551882083E-1,-1.916948256E0,1.605716169E0,-3.413841895E0,4.231705509E0
8.651122083E-1,-7.704653871E-1,2.576715910E-1,-9.481442906E-1,1.248594873E0
8.750352083E-1,1.447501624E0,-2.604174435E0,2.282248961E0,3.753084832E0
8.849582083E-1,4.278780161E0,-3.921638660E0,5.206833857E0,7.797328277E0
8.948812083E-1,5.774632995E0,-2.994356797E0,6.755918573E0,9.378432418E0
9.048042083E-1,5.189705608E0,-1.201533819E0,5.221787526E0,7.459476710E0
9.147272083E-1,3.734789715E0,4.403397775E-1,1.541174603E0,4.064206256E0
9.246512083E-1,1.957612132E0,2.560893345E0,-8.019959128E-1,3.321688942E0
9.345742083E-1,4.408777213E-1,5.063365404E0,-5.960142197E-1,5.117350421E0
9.444972083E-1,-1.628689295E-1,5.367704208E0,9.201944536E-1,5.448443134E0
9.544202083E-1,5.702497065E-2,4.127492226E0,1.423331573E0,4.366384854E0
9.643432084E-1,-4.381225133E-1,1.612703592E0,1.268811883E0,2.098248748E0
9.742672084E-1,-8.714532334E-1,8.563130379E-1,1.783145835E0,2.161553105E0
9.841902084E-1,-1.472944028E0,1.247670690E0,2.381625899E0,3.065679074E0
9.941132084E-1,-2.326048699E0,2.667369972E0,1.170226657E0,3.727572340E0
1.004036208E0,-2.770998421E0,2.566397914E0,-7.292717528E-1,3.846643705E0
1.013959208E0,-3.629889497E0,1.552469670E0,-8.566591930E-1,4.039817422E0
1.023882208E0,-4.358642601E0,8.812940973E-1,9.700885255E-2,4.447904600E0
1.033806208E0,-4.553802487E0,1.429596865E0,1.140799960E0,4.907370868E0
1.043729208E0,-3.721121848E0,3.469248941E0,1.332730136E0,5.259144953E0
1.053652208E0,-2.869049504E0,4.511829711E0,1.102789550E0,5.459322045E0
1.063575208E0,-2.367285310E0,3.871288871E0,1.429554180E0,4.757577369E0
1.073498208E0,-2.358098457E0,3.185202314E0,-2.624992862E0,4.753601755E0
1.083421208E0,-1.776742550E0,2.984482604E0,-3.531258663E0,4.953154373E0
1.093345208E0,-1.844971955E0,3.312807856E0,-3.012766171E-1,3.803864483E0
1.103268208E0,-7.806067979E-1,3.692181054E0,1.088208933E0,3.927562424E0
1.113191208E0,-7.333285511E-2,3.826070598E0,1.565987263E0,4.134792623E0
1.123114208E0,4.148083489E-1,2.933496637E0,8.706737995E-1,3.087967188E0
1.133037208E0,3.362903291E-1,2.100614562E0,6.650418431E-1,2.228890616E0
1.142960208E0,3.915427163E-1,1.452606243E0,-5.335573319E-1,1.596262517E0
1.152884208E0,2.187004834E-2,-9.541018724E-1,5.640639371E-1,1.108583243E0
1.162807208E0,2.908450381E-1,-2.329392722E0,2.663102674E0,3.550039034E0
1.172730208E0,-2.031960064E0,-5.018340674E0,3.670527061E0,6.541052952E0
1.182653208E0,-5.527475867E0,-6.539007922E0,4.137950556E0,9.509692365E0
1.192576208E0,-7.285662278E0,-6.529060639E0,3.289470448E0,1.032134310E1
1.202500208E0,-7.292059717E0,-5.557839289E0,2.048220586E0,9.394621868E0
1.212423208E0,-6.069699284E0,-3.959194742E0,1.084992964E0,7.327597297E0
1.222346208E0,-4.590721514E0,-2.085598912E0,6.194622123E-1,5.080175221E0
1.232269208E0,-3.117449749E0,-8.565328932E-1,4.994095194E-1,3.271322577E0
1.242192208E0,-2.120773130E0,-6.730963826E-2,1.282936125E-1,2.125715999E0
1.252115208E0,-1.400913056E0,7.146776873E-1,-2.193887738E-1,1.587908379E0
1.262039208E0,-9.428991920E-1,6.607839006E-1,-1.511044047E-1,1.161260862E0
1.271962208E0,-3.393375690E-1,-1.031609055E0,-3.607118831E-1,1.144325255E0
1.281885208E0,1.101886813E0,-5.644997301E0,-5.159591132E-1,5.774630973E0
1.291808208E0,2.122060687E0,-9.943973744E0,-4.097834710E-1,1.017613276E1
1.301731208E0,2.834237813E0,-1.222262901E1,-8.159017611E-1,1.257343467E1
1.311654208E0,3.849715861E0,-1.229056547E1,-1.205705223E0,1.293568849E1
1.321578208E0,5.131841562E0,-9.189272450E0,-1.165583968E0,1.058948119E1
1.331501208E0,5.315235388E0,-4.392712573E0,-1.071056710E0,6.978166912E0
1.341424208E0,4.220668193E0,-3.888497812E-1,-9.706434993E-1,4.348263210E0
1.351347208E0,2.916609586E0,1.940997854E0,-7.376672582E-1,3.580256573E0
1.361269292E0,1.477935796E0,3.066276965E0,-3.393737852E-1,3.420748925E0
1.371193292E0,1.422174409E-1,2.665347421E0,-1.353922784E-2,2.669173277E0
1.381116292E0,-5.124584582E-1,1.184764005E0,-2.278455287E-1,1.310798613E0
1.391039292E0,-6.473756504E-1,7.506480038E-2,-1.105473276E0,1.283277491E0
1.400962292E0,-6.400903121E-1,-3.108280438E-1,-2.210655652E0,2.322353998E0
1.410885292E0,-4.601340643E-1,-2.031930828E-1,-2.922064161E0,2.965041273E0
1.420808292E0,-2.205753566E-1,7.483968258E-2,-2.814288282E0,2.823910941E0
1.430732292E0,4.570596714E-2,2.817282057E-1,-1.955698339E0,1.976414888E0
1.440655292E0,1.547620208E-1,6.222606897E-3,-8.546307208E-1,8.685526311E-1
1.450578292E0,1.960448251E-1,-7.494224274E-1,-3.098801371E-1,8.343220287E-1
1.460501292E0,6.967778984E-1,-1.065587225E0,-2.309889919E-1,1.293959616E0
1.470424292E0,1.101090349E0,-1.020104073E0,-6.351024178E-1,1.629836605E0
1.480347292E0,1.070150977E0,-8.245445305E-1,-1.005886568E0,1.684311309E0
1.490271292E0,8.452217469E-1,8.290299296E-2,-1.059702587E0,1.358028822E0
1.500194292E0,7.930096194E-1,9.095180225E-1,-7.552684736E-1,1.423558133E0
1.510117292E0,6.558947513E-1,1.792994885E0,-6.858667016E-1,2.028655150E0
1.520040292E0,3.231060272E-1,2.865290036E0,-1.323827165E0,3.172822538E0
1.529963292E0,-1.500655738E-1,4.522525438E0,-2.453275341E0,5.147262953E0
1.539886292E0,-5.169666030E0,2.429019921E1,-3.591651045E0,2.509261209E1
1.549810292E0,7.588469696E-1,6.598999186E0,-3.531476179E0,7.522895917E0
1.559733292E0,1.668160340E0,1.995161197E0,2.435727847E-1,2.612040356E0
1.569656292E0,-8.270471388E-1,5.048639191E0,1.861243587E0,5.443986806E0
1.579579292E0,-1.193895455E-1,8.363933283E-1,1.918853863E0,2.096618185E0
1.589502292E0,-1.857042801E-1,-3.912635118E-1,8.172630659E-1,9.249281779E-1
1.599426292E0,2.120665249E-1,-1.763772256E0,6.452718222E-1,1.890037170E0
1.609349292E0,1.140902725E0,-1.998517499E0,2.349144470E0,3.288496763E0
1.619272292E0,2.507658539E0,-2.666862434E0,5.452867734E0,6.567668774E0
1.629195292E0,3.122040106E0,-3.875022318E0,7.291838107E0,8.828014237E0
1.639118292E0,2.608632937E0,-5.487846948E0,6.022428639E0,8.555178352E0
1.649041292E0,1.205401606E0,-6.376869310E0,2.468004477E0,6.943234213E0
1.658965292E0,-8.875298604E-2,-6.796133384E0,-6.003581163E-1,6.823176381E0
1.668888292E0,8.089008898E-2,-7.602755613E0,-2.565489256E-1,7.607512962E0
1.678811292E0,8.187268433E-1,-8.332152497E0,2.557373321E-1,8.376185316E0
1.688734292E0,1.103921352E0,-8.152194495E0,-1.612696429E-1,8.228178737E0
1.698657292E0,4.904478575E-1,-6.580567008E0,6.279098310E-2,6.599116907E0
1.708580292E0,-2.160469439E-1,-5.045230849E0,5.739136449E-1,5.082362391E0
1.718504292E0,-1.201498298E0,-3.496454866E0,6.907094387E-1,3.761100147E0
1.728427292E0,-2.085434459E0,-4.220698013E0,1.301724690E0,4.884446312E0
1.738350292E0,-8.676885036E-1,-5.573287632E0,2.054754850E0,6.003035554E0
1.748273292E0,3.707187933E0,-4.246971892E0,1.784062679E0,5.912942776E0
1.758196292E0,7.549488063E0,-5.259954057E0,8.911601043E-1,9.244244319E0
1.768120292E0,8.450777299E0,-9.085555124E0,-8.670374161E-1,1.243843651E1
1.778043292E0,8.016711584E0,-1.396708966E1,-3.605561571E0,1.650294921E1
1.787966292E0,9.218836557E0,-1.796528592E1,-7.313560513E0,2.147618711E1
1.797889292E0,1.048200295E1,-1.967931416E1,-9.835217872E0,2.436963894E1
1.807812292E0,9.935363134E0,-1.713497311E1,-1.103110094E1,2.267165481E1
1.817735292E0,5.801304485E0,-9.805115236E0,-9.675938548E0,1.494721396E1
1.827659292E0,5.723003250E-1,-4.630808855E0,-6.502792608E0,8.003638548E0
1.837582292E0,-3.086713276E0,-1.277418399E0,-3.263132835E0,4.669864293E0
1.847505292E0,-4.971457699E0,1.745759908E0,-1.329635205E0,5.434243194E0
1.857428292E0,-5.036865823E0,4.476417804E0,-5.962681351E-1,6.764899804E0
1.867351292E0,-4.539072766E0,6.865746825E0,-4.135940284E-1,8.240917489E0
1.877274292E0,-3.701417316E0,9.237431288E0,-4.228824401E-1,9.960394395E0
1.887198292E0,-2.413739977E0,1.140482456E1,-2.079387196E-1,1.165930540E1
1.897121292E0,-6.946667612E-1,1.272909144E1,8.145171404E-1,1.277402712E1
1.907044292E0,1.199111610E0,1.323142223E1,1.795945390E0,1.340648435E1
1.916967292E0,2.745451936E0,1.296360688E1,2.862323159E0,1.355675122E1
1.926890292E0,3.479435960E0,1.248825632E1,3.652680774E0,1.346867096E1
1.936814292E0,3.631469707E0,1.227754606E1,3.610795414E0,1.330276486E1
1.946737292E0,2.959581359E0,1.143818994E1,2.981585308E0,1.218528465E1
1.956660292E0,1.747388065E0,1.009198548E1,2.385801396E0,1.051634843E1
1.966583292E0,1.353166155E0,9.299098948E0,1.895568497E0,9.586317322E0
1.976506292E0,1.727903096E0,8.790523918E0,8.981674075E-1,9.003647291E0
1.986429292E0,2.269564011E0,8.248376514E0,-7.494575107E-1,8.587684349E0
1.996353292E0,2.506185626E0,7.801725837E0,-2.311336520E0,8.514115863E0
2.006276292E0,1.623797807E0,7.348766599E0,-3.696948874E0,8.385017640E0
2.016199292E0,-5.083730087E-1,6.893011222E0,-4.689634184E0,8.352527498E0
2.026122292E0,-2.227367579E0,6.650417261E0,-5.346004606E0,8.818672311E0
2.036045292E0,-3.004897865E0,6.857050846E0,-5.265112470E0,9.152593447E0
2.045968292E0,-2.503299440E0,7.549914910E0,-4.563922555E0,9.170447772E0
2.055892292E0,-1.401447491E0,8.344515849E0,-3.334049621E0,9.094552584E0
2.065815292E0,-6.662095320E-1,8.706491827E0,-3.472975956E0,9.397254763E0
2.075738292E0,-6.697221006E-1,8.079234107E0,-6.362895634E0,1.030577471E1
2.085661292E0,-2.427040931E0,6.313518822E0,-8.964827077E0,1.123027925E1
2.095584292E0,-4.456514759E0,3.833783661E0,-5.316935173E0,7.926425461E0
2.105507292E0,-4.770384524E0,4.284436172E-1,8.182349170E0,9.481084874E0
2.115431292E0,-4.292635430E0,-1.521103451E0,1.763645839E1,1.821497019E1
2.125354292E0,-5.635930023E0,-2.507948561E0,1.694009360E1,1.802831895E1
2.135277292E0,-9.100584222E0,-6.575215051E0,1.422317549E1,1.812050792E1
2.145200292E0,-1.245638432E1,-1.389572790E1,6.182919506E0,1.965912658E1
2.155123292E0,-1.119605908E1,-1.809752889E1,7.255462725E-2,2.128091997E1
2.165047292E0,-3.870419390E0,-1.882191821E1,2.637888311E0,1.939595850E1
2.174970292E0,3.790366623E0,-2.193876950E1,3.351239265E0,2.251460173E1
2.184893292E0,1.226378639E1,-3.027657158E1,-2.851180705E0,3.279024968E1
2.194816292E0,2.092444365E1,-3.746363927E1,-4.383400882E0,4.313433450E1
2.204739292E0,2.136465245E1,-3.489241273E1,-1.443588667E0,4.093913517E1
2.214662292E0,1.401081280E1,-2.429507345E1,-5.180115005E0,2.851994146E1
2.224586292E0,8.280418087E0,-1.526585215E1,-9.119519845E0,1.961573878E1
2.234509292E0,6.007616472E0,-1.150629129E1,-1.062111172E1,1.677182784E1
2.244432292E0,4.009760001E0,-9.067474948E0,-1.067407112E1,1.456822129E1
2.254355292E0,1.255259499E0,-6.515421424E0,-1.077373808E1,1.265305596E1
2.264278292E0,-2.121768326E0,-3.395633081E0,-9.722080681E0,1.051432725E1
2.274201292E0,-3.298151810E0,1.595190597E-1,-8.097009058E0,8.744415782E0
2.284125292E0,-2.653334316E0,3.835826678E0,-6.826501483E0,8.267700514E0
2.294048292E0,-1.210661542E0,6.429146926E0,-5.464233552E0,8.523935704E0
2.303971292E0,1.342347929E0,8.007517422E0,-8.089518336E-1,8.159450735E0
2.313894292E0,3.979665259E0,8.992729406E0,3.377048290E0,1.039766190E1
2.323817292E0,6.036978850E0,9.500833150E0,3.775920784E0,1.187301655E1
2.333741292E0,6.883835186E0,1.007678272E1,2.867044201E0,1.253589563E1
2.343664292E0,5.579400312E0,1.047536636E1,3.952391506E0,1.250937276E1
2.353587292E0,1.411625155E0,9.871394595E0,7.355863949E0,1.239136196E1
2.363510417E0,-1.921979785E0,9.316261695E0,8.868279022E0,1.300511865E1
2.373433417E0,-3.253225605E0,9.501664039E0,8.269829364E0,1.300981069E1
2.383356417E0,-3.939535233E0,1.005875926E1,7.258392618E0,1.301471626E1
2.393280417E0,-4.088812602E0,1.060097508E1,5.814182392E0,1.276337644E1
2.403203417E0,-4.117139146E0,1.119328282E1,2.480630955E0,1.218170534E1
2.413126417E0,-4.092951554E0,1.204430179E1,-3.434700083E0,1.317629017E1
2.423049417E0,-3.202929903E0,1.267565958E1,-5.772956014E0,1.429189025E1
2.432972417E0,-2.207037395E0,1.258818173E1,-4.303693392E0,1.348536651E1
2.442895417E0,-9.889585868E-1,1.188539435E1,-3.131313790E0,1.233068384E1
2.452819417E0,-3.216641039E-1,1.054180360E1,-3.978599896E0,1.127219358E1
2.462742417E0,2.991014528E-1,9.443917522E0,-4.656522571E0,1.053376677E1
2.472665417E0,1.224349070E0,8.740109224E0,-4.642661161E0,9.972103216E0
2.482588417E0,2.539015403E0,8.144579666E0,-4.592975031E0,9.688972948E0
2.492511417E0,3.642007559E0,7.695478420E0,-4.373285784E0,9.571323614E0
2.502434417E0,4.352952383E0,7.378334214E0,-4.006452523E0,9.457254996E0
2.512358417E0,4.931892514E0,7.104012676E0,-3.851944528E0,9.467208486E0
2.522281417E0,5.358385500E0,6.869263925E0,-3.585799152E0,9.421095350E0
2.532204417E0,4.812258482E0,6.412420966E0,-3.388036963E0,8.703778996E0
2.542127417E0,2.974298216E0,5.249041398E0,-5.738563861E0,8.326463875E0
2.552050417E0,1.069852769E0,3.030888446E0,-1.150595449E1,1.194645799E1
2.561973417E0,-9.991986693E-1,-1.012093973E0,-1.453586821E1,1.460527976E1
2.571897417E0,-4.090798609E0,-4.150287012E0,1.074107905E1,1.222007752E1
2.581820417E0,-4.111351865E0,-3.660455232E0,2.534507901E1,2.593598228E1
2.591743417E0,-6.303753971E0,-7.094624972E0,2.352440809E1,2.536668669E1
2.601666417E0,-1.093702860E1,-1.385612120E1,2.408305341E1,2.985974130E1
2.611589417E0,-1.258941432E1,-1.931460343E1,2.077367436E1,3.103373656E1
2.621513417E0,-1.164511238E1,-2.033983902E1,1.331652845E1,2.695640228E1
2.631436417E0,-7.158141521E0,-2.289811749E1,5.667669879E0,2.465127292E1
2.641359417E0,-2.941636254E-1,-2.552999136E1,2.225805788E0,2.562852322E1
2.651282417E0,7.914039155E0,-3.193018287E1,-4.310168599E0,3.317749459E1
2.661205417E0,1.879967190E1,-3.840608648E1,-1.448421508E1,4.514695591E1
2.671128417E0,2.216677583E1,-3.495658475E1,-1.237048521E1,4.320136193E1
2.681052417E0,1.673687011E1,-2.813333783E1,-5.698736136E0,3.322774612E1
2.690975417E0,9.163690882E0,-2.085167154E1,-9.122343466E0,2.453533344E1
2.700898417E0,-1.072639259E0,-1.274704941E1,-1.719025502E1,2.142761516E1
2.710821417E0,-8.405946697E0,-7.082774420E0,-1.891261554E1,2.187493223E1
2.720744417E0,-1.191478480E1,-2.047059329E0,-1.214226254E1,1.713438321E1
2.730667417E0,-1.143588731E1,3.202397806E0,-6.626683998E0,1.359955187E1
2.740591417E0,-8.863079678E0,8.083296753E0,-3.849724340E0,1.259818420E1
2.750514417E0,-3.716496116E0,1.057859194E1,-4.507303162E-1,1.122150207E1
2.760437417E0,2.202530508E0,1.073382499E1,3.512855721E0,1.150679342E1
2.770360417E0,7.113639532E0,9.444439679E0,6.461328832E0,1.347405205E1
2.780283417E0,9.840962176E0,8.826760283E0,5.732840021E0,1.440908354E1
2.790206417E0,1.160448826E1,9.164056333E0,1.142993835E0,1.483072862E1
2.800130417E0,1.108427903E1,9.574984615E0,1.765859310E-1,1.464830211E1
2.810053417E0,7.368239581E0,1.002429578E1,3.807254258E0,1.301048213E1
2.819976417E0,3.533794600E0,1.059642712E1,6.457204206E0,1.290222686E1
2.829899417E0,1.001039665E0,1.132611051E1,7.915472893E0,1.385415356E1
2.839822417E0,-5.310545775E-1,1.198806093E1,8.495393894E0,1.470263042E1
2.849746417E0,-9.168087696E-1,1.237226978E1,6.893207688E0,1.419260054E1
2.859669417E0,-5.734700240E-1,1.218771528E1,4.376865449E0,1.296249292E1
2.869592417E0,-1.214138516E-1,1.139842186E1,2.348551708E0,1.163849034E1
2.879515417E0,-1.648025306E-1,1.062456860E1,-3.645528460E-1,1.063209841E1
2.889438417E0,-4.190310618E-1,9.879393586E0,-2.808474981E0,1.027937432E1
2.899361417E0,-4.723267514E-1,9.212963029E0,-3.175749121E0,9.756390870E0
2.909285417E0,-8.539790487E-1,8.690720133E0,-2.994785982E0,9.231827539E0
2.919208417E0,-1.694514033E0,8.462950033E0,-3.079408057E0,9.163823168E0
2.929131417E0,-2.380794425E0,8.592554737E0,-3.489154032E0,9.574673617E0
2.939054417E0,-2.189930050E0,8.862304922E0,-4.344282424E0,1.010984826E1
2.948977417E0,-1.252002015E0,8.890276832E0,-4.390528053E0,9.994061626E0
2.958900417E0,-2.601771960E-1,8.698319174E0,-3.987300553E0,9.572200078E0
2.968824417E0,9.524721804E-1,8.724155096E0,-3.467665515E0,9.436248700E0
2.978747417E0,2.146476467E0,8.955041762E0,-3.697275149E0,9.923204004E0
2.988670417E0,2.933881384E0,8.968109120E0,-5.344051051E0,1.084405472E1
2.998593417E0,2.998270338E0,8.160430883E0,-8.295572315E0,1.201660423E1
3.008516417E0,2.575314918E0,6.002542843E0,-9.247426518E0,1.132155752E1
3.018439417E0,1.567487366E0,2.601271293E0,1.286666648E0,3.298354142E0
3.028363417E0,-9.692596096E-1,3.655462879E-1,1.694966666E1,1.698129230E1
3.038286417E0,-1.600039108E0,-1.456556037E0,1.649058656E1,1.663193090E1
3.048209417E0,-2.422251184E0,-5.933431678E0,1.589737015E1,1.714057438E1
3.058132417E0,-6.232830169E0,-1.527086439E1,2.038505203E1,2.622208644E1
3.068055417E0,-8.353296028E0,-2.669514263E1,2.312457782E1,3.629262038E1
3.077978417E0,-3.030468616E0,-3.145675487E1,2.260832481E1,3.885675640E1
3.087902417E0,2.207869162E0,-3.181702522E1,2.030233966E1,3.780717889E1
3.097825417E0,3.498821234E0,-3.727844158E1,1.640609897E1,4.087889480E1
3.107748417E0,6.102463573E0,-3.923772660E1,5.825147091E0,4.013441901E1
3.117671417E0,1.310589069E1,-3.678676091E1,-1.605696523E1,4.222388283E1
3.127594417E0,1.935170402E1,-3.294998406E1,-3.749676726E1,5.353687937E1
3.137518417E0,1.361996503E1,-2.535813234E1,-2.192323228E1,3.618240507E1
3.147441417E0,4.122803344E0,-1.694591976E1,-8.671021448E0,1.947686620E1
3.157364417E0,-2.492952207E0,-1.086846999E1,-1.201252218E1,1.639021476E1
3.167287417E0,-6.909678710E0,-6.847039828E0,-1.669229561E1,1.931989511E1
3.177210417E0,-7.169283975E0,-2.333625521E0,-1.391255619E1,1.582414802E1
3.187133417E0,-5.081728585E0,2.055858804E0,-7.660562941E0,9.419912176E0
3.197057417E0,-1.850109172E0,5.314408591E0,-2.972230933E0,6.363960979E0
3.206980417E0,2.247104271E0,7.097902336E0,-2.918258355E-1,7.450829316E0
3.216903417E0,5.845837464E0,8.673711167E0,5.617408383E-1,1.047485722E1
3.226826417E0,8.702726220E0,9.697999508E0,2.207235616E0,1.321591946E1
3.236749417E0,9.176388695E0,9.670612319E0,3.505511034E0,1.378460952E1
3.246672417E0,7.560854466E0,9.440555373E0,4.746503034E0,1.299307112E1
3.256596417E0,3.962046721E0,9.379946644E0,5.775312442E0,1.170621404E1
3.266519417E0,1.237025980E0,9.921705208E0,6.023651876E0,1.167282526E1
3.276442417E0,-3.107439901E-1,1.093805186E1,6.496966442E0,1.272588359E1
3.286365417E0,-1.847070374E0,1.192141554E1,8.110185174E0,1.453639986E1
3.296288417E0,-2.611804467E0,1.256479169E1,8.928759112E0,1.563388155E1
3.306211417E0,-1.860254969E0,1.273129935E1,7.101176777E0,1.469602814E1
3.316135417E0,-8.040542789E-1,1.215231741E1,5.212377602E0,1.324742246E1
3.326058417E0,-2.853202233E-1,1.142376837E1,3.609255842E0,1.198376481E1
3.335981417E0,-5.587534227E-1,1.084808894E1,8.577280641E-1,1.089628085E1
3.345904417E0,-2.155381777E0,1.063808970E1,-8.328721350E0,1.368145542E1
3.355827417E0,-1.871347283E0,1.013116651E1,-1.134324402E1,1.532356553E1
3.365752167E0,-1.151050348E0,9.677017359E0,-7.898740500E0,1.254430880E1
3.375675167E0,1.470485567E-1,9.572234670E0,-4.736448162E0,1.068097566E1
3.385598167E0,1.692520571E0,9.785322996E0,-3.971731757E0,1.069541141E1
3.395521167E0,2.645894904E0,9.987833709E0,-4.604844879E0,1.131203688E1
3.405444167E0,3.682284057E0,9.835100927E0,-4.519918749E0,1.143320129E1
3.415367167E0,4.812525992E0,9.243997711E0,-3.983475305E0,1.115705945E1
3.425291167E0,5.769117901E0,8.440324817E0,-3.548718449E0,1.082197796E1
3.435214167E0,6.383390710E0,7.465195772E0,-2.791404619E0,1.021120779E1
3.445137167E0,7.077706053E0,6.010147147E0,-5.116021335E0,1.060138981E1
3.455060167E0,6.330665781E0,4.137491550E0,-1.033201369E1,1.280416621E1
3.464983167E0,6.797756571E-1,2.716971903E0,-1.454715626E-1,2.804495185E0
3.474906167E0,-3.427319727E0,2.266956738E0,1.681874048E1,1.731345271E1
3.484830167E0,-5.613749195E0,7.154167753E-1,1.478864568E1,1.583445744E1
3.494753167E0,-6.591355121E0,-1.631611149E0,1.312754293E1,1.477973277E1
3.504676167E0,-9.575036071E0,-5.470108250E0,1.643231554E1,1.978950212E1
3.514599167E0,-1.471617997E1,-1.598186827E1,2.377761825E1,3.220809209E1
3.524522167E0,-1.587094776E1,-2.810669791E1,2.610020247E1,4.151016766E1
3.534445167E0,-1.175635098E1,-3.188289527E1,2.262318609E1,4.082326969E1
3.544369167E0,-8.362798923E0,-3.369066022E1,1.682555366E1,3.857585058E1
3.554292167E0,-8.869967113E0,-3.893296037E1,7.884514809E0,4.070156377E1
3.564215167E0,-4.876679011E0,-4.624225124E1,-1.511503609E1,4.889368174E1
3.574138167E0,2.474023016E0,-3.895181647E1,-3.807150178E1,5.452342656E1
3.584061167E0,2.928174502E0,-2.612366618E1,-2.173233706E1,3.410739824E1
3.593984167E0,3.553175781E0,-1.859317514E1,-3.050785351E0,1.917390182E1
3.603908167E0,5.611513220E0,-1.420161797E1,-1.307852426E0,1.532597506E1
3.613831167E0,6.438820560E0,-9.198872994E0,-7.517944089E0,1.351285158E1
3.623754167E0,6.795760916E0,-3.908568379E0,-1.403507407E1,1.607614933E1
3.633677167E0,8.025834410E0,1.367429852E-1,-1.100560825E1,1.362189890E1
3.643600167E0,9.703601140E0,2.299647936E0,-4.500550432E0,1.094089621E1
3.653523167E0,1.242400244E1,3.516692079E0,-1.108815106E0,1.295964624E1
3.663447167E0,1.440993556E1,5.282517877E0,-2.418072179E-2,1.534769763E1
3.673370167E0,1.457850143E1,7.576093479E0,-2.450378045E0,1.661126873E1
3.683293167E0,1.219637852E1,9.718019205E0,-4.485045370E0,1.622674268E1
3.693216167E0,5.793083884E0,1.049957150E1,-2.827502990E-1,1.199503106E1
3.703139167E0,-7.893986714E-1,9.816202726E0,6.023289349E0,1.154387287E1
3.713062167E0,-3.397035535E0,8.950322474E0,8.141496429E0,1.256710336E1
3.722986167E0,-4.449824082E0,8.720262605E0,7.296235213E0,1.220978962E1
3.732909167E0,-6.167266510E0,9.156986464E0,6.853337279E0,1.299437606E1
3.742832167E0,-8.291372845E0,9.896693158E0,8.022092192E0,1.520017639E1
3.752755167E0,-9.647605280E0,1.047877178E1,9.018122109E0,1.685845402E1
3.762678167E0,-8.949967548E0,1.090209850E1,8.331829730E0,1.638221772E1
3.772602167E0,-8.509316114E0,1.145658411E1,6.523425677E0,1.569129895E1
3.782525167E0,-9.266150472E0,1.347819811E1,-3.486738548E0,1.672365734E1
3.792448167E0,-7.818814909E0,1.487368174E1,-4.768245905E0,1.746701016E1
3.802371167E0,-5.036502711E0,1.431916455E1,-1.073228366E0,1.521698564E1
3.812294167E0,-2.652714511E0,1.359486761E1,-2.285119359E0,1.403848603E1
3.822217167E0,-7.039123785E-1,1.221513054E1,-4.918916958E0,1.318713960E1
3.832141167E0,6.876708600E-1,1.079881562E1,-7.316756601E0,1.306224472E1
3.842064167E0,1.468891031E0,9.807606150E0,-8.124499158E0,1.282007277E1
3.851987167E0,2.645743461E0,9.364736867E0,-8.758089412E0,1.309207337E1
3.861910167E0,4.115995139E0,9.182765084E0,-9.473143660E0,1.382045735E1
3.871833167E0,5.933652703E0,9.035584234E0,-9.688173847E0,1.451587852E1
3.881756167E0,8.811666280E0,8.518217331E0,-9.392686558E0,1.544111557E1
3.891680167E0,1.159120807E1,7.553948320E0,-9.486730835E0,1.677546726E1
3.901603167E0,1.292249979E1,6.509336811E0,-9.284723568E0,1.719210744E1
3.911526167E0,1.297925403E1,5.548976664E0,-9.867186939E0,1.722247239E1
3.921449167E0,1.245417173E1,4.147128346E0,-1.196015568E1,1.775810775E1
3.931372167E0,1.031184196E1,2.179891112E0,-8.327011625E0,1.343224227E1
3.941295167E0,1.513169656E0,5.717717367E-1,1.196999538E1,1.207879939E1
3.951219167E0,-7.424955819E0,-1.131225144E0,1.883395412E1,2.027627843E1
3.961142167E0,-8.980546732E0,-5.355599302E0,1.201859860E1,1.593045435E1
3.971065167E0,-9.943106017E0,-1.082113912E1,1.433780313E1,2.053131773E1
3.980988167E0,-1.431753552E1,-2.104420866E1,1.680542287E1,3.050037342E1
3.990911167E0,-1.956644067E1,-3.699029547E1,3.765854802E0,4.201558309E1
4.000834167E0,-1.467159261E1,-4.200337541E1,-8.107800679E0,4.522472341E1
4.010758167E0,-3.362090820E0,-3.464745415E1,-5.884394588E0,3.530404840E1
4.020681167E0,3.976306911E0,-3.236546832E1,-2.039478414E0,3.267252712E1
4.030604167E0,1.006931700E1,-3.174038927E1,-7.546334075E0,3.414367604E1
4.040527167E0,9.030942714E0,-2.754927583E1,-1.358723816E1,3.201770707E1
4.050450167E0,1.661651511E0,-2.223259209E1,-1.429356778E1,2.648311380E1
4.060373167E0,-4.354527916E0,-1.710095401E1,-1.093196842E1,2.075843142E1
4.070297167E0,-6.708802879E0,-1.353990378E1,-7.278393019E0,1.677235927E1
4.080220167E0,-8.374440730E0,-9.261137069E0,-3.512287372E0,1.297058518E1
4.090143167E0,-9.448352636E0,-2.984641063E0,5.179603958E-1,9.922083086E0
4.100066167E0,-8.833645379E0,2.335670877E0,3.482674148E0,9.778428726E0
4.109989167E0,-6.357470587E0,5.459006726E0,6.557486878E0,1.064043330E1
4.119913167E0,-2.801962059E0,7.146095672E0,8.840073223E0,1.170745785E1
4.129836167E0,3.666495113E-1,8.776860144E0,9.712894120E0,1.309610698E1
4.139759167E0,2.030560533E0,1.049383889E1,9.172996725E0,1.408501685E1
4.149682167E0,2.564924708E0,1.202499779E1,7.464114622E0,1.438375534E1
4.159605167E0,2.897033985E0,1.342860554E1,4.411687957E0,1.442855652E1
4.169528167E0,3.366289998E0,1.452285231E1,7.911510819E-1,1.492886692E1
4.179452167E0,3.004699059E0,1.457394645E1,1.662111395E0,1.497300056E1
4.189375167E0,1.448563917E0,1.390798835E1,4.166579694E0,1.459078009E1
4.199298167E0,-5.665201696E-1,1.323677009E1,3.953232336E0,1.382610116E1
4.209221167E0,-2.176809922E0,1.283329701E1,2.080137028E0,1.318176709E1
4.219144167E0,-3.134996951E0,1.263244983E1,-1.478187811E-1,1.301648358E1
4.229067167E0,-3.126453877E0,1.223695936E1,-1.939568794E0,1.277809905E1
4.238991167E0,-2.648838392E0,1.112407518E1,-3.258612353E0,1.189033002E1
4.248914167E0,-2.782290272E0,1.016133229E1,-3.236906319E0,1.102140534E1
4.258837167E0,-2.680648122E0,9.717709887E0,-2.705027211E0,1.043728566E1
4.268760167E0,-1.412217770E0,9.809807042E0,-2.557540551E0,1.023560877E1
4.278683167E0,2.577707744E-1,1.015278951E1,-2.548673834E0,1.047097507E1
4.288606167E0,1.569499685E0,1.024098891E1,-3.060176564E0,1.080304882E1
4.298530167E0,2.471972398E0,9.913175290E0,-3.374157427E0,1.075949024E1
4.308453167E0,3.645835438E0,9.279970366E0,-3.744103160E0,1.065027110E1
4.318376167E0,4.879706407E0,8.474842100E0,-4.430582650E0,1.073613272E1
4.328299167E0,5.932840524E0,7.563448291E0,-5.307452744E0,1.098059203E1
4.338222167E0,6.623483232E0,6.621433198E0,-6.216709980E0,1.124105826E1
4.348145167E0,6.969446025E0,5.735031558E0,-7.324680163E0,1.162388508E1
4.358069167E0,6.778159627E0,4.979372490E0,-8.169815664E0,1.172533523E1
4.367991833E0,5.401733834E0,4.555138868E0,-9.234973118E0,1.162810161E1
4.377914833E0,3.109822641E0,3.977738017E0,-1.082441590E1,1.194409378E1
4.387837833E0,-8.996720423E-1,3.660810742E0,-2.458105141E0,4.500358426E0
4.397760833E0,-6.782047441E0,3.893473792E0,1.059911216E1,1.317180641E1
4.407683833E0,-8.603539317E0,2.237442332E0,5.897778865E0,1.066821599E1
4.417607833E0,-8.804425088E0,3.012953281E-1,3.464875224E0,9.466469264E0
4.427530833E0,-9.383267278E0,-2.468043069E0,7.176490084E0,1.206809643E1
4.437453833E0,-1.337835925E1,-1.241424460E1,1.135213998E1,2.149337217E1
4.447376833E0,-2.074305132E1,-3.082693724E1,5.952413494E0,3.762984805E1
4.457299833E0,-2.073443486E1,-3.958662294E1,2.290743796E0,4.474667599E1
4.467222833E0,-9.928462250E0,-3.583377235E1,7.860217874E0,3.800548156E1
4.477146833E0,-3.384519570E0,-3.500848932E1,8.191425803E0,3.611299979E1
4.487069833E0,2.291075040E-1,-3.502356578E1,4.501765776E0,3.531244179E1
4.496992833E0,4.722282989E0,-3.014627690E1,9.670557209E-1,3.052921821E1
4.506915833E0,7.596094465E0,-2.296672405E1,-1.125249144E0,2.421646651E1
4.516838833E0,8.611067022E0,-1.729918164E1,-3.329713910E0,1.960865001E1
4.526761833E0,9.766386788E0,-1.300721542E1,-6.605344584E0,1.755564128E1
4.536685833E0,9.129667688E0,-8.284067334E0,-1.025653549E1,1.603661822E1
4.546608833E0,4.982903039E0,-4.187614467E0,-1.198574777E1,1.363904642E1
4.556531833E0,1.149565229E0,-1.733238680E0,-9.669152854E0,9.890305023E0
4.566454833E0,-1.742537507E-1,5.767436242E-1,-4.567383522E0,4.606950165E0
4.576377833E0,3.748395601E-1,2.928377985E0,-8.919557641E-1,3.084069941E0
4.586300833E0,2.681846509E0,4.968628816E0,-2.280525202E-1,5.650803568E0
4.596224833E0,5.958334969E0,6.364066831E0,-3.282501737E0,9.315466703E0
4.606147833E0,8.783435923E0,7.817634941E0,-5.079668611E0,1.280887176E1
4.616070833E0,9.533779287E0,8.862679144E0,-1.851551827E0,1.314793798E1
4.625993833E0,7.883469327E0,9.899023858E0,7.586838323E-1,1.267735631E1
4.635916833E0,3.490979533E0,1.043796523E1,5.569509454E-1,1.102035620E1
4.645839833E0,-1.093959085E0,1.031915449E1,2.697379053E-1,1.038048430E1
4.655763833E0,-3.557545990E0,9.881296270E0,1.213692666E0,1.057209531E1
4.665686833E0,-4.426071523E0,9.270112545E0,2.211886053E0,1.050797486E1
4.675609833E0,-5.073461207E0,9.051519066E0,3.064280140E0,1.081941860E1
4.685532833E0,-5.956242251E0,9.268958305E0,3.415510690E0,1.153499558E1
4.695455833E0,-6.852888213E0,9.838686440E0,3.130655394E0,1.239204708E1
4.705378833E0,-7.141175825E0,1.065679260E1,1.405314694E0,1.290498083E1
4.715302833E0,-6.206507758E0,1.137847935E1,-1.411011343E0,1.303769473E1
4.725225833E0,-4.383876845E0,1.178361187E1,-3.605466846E0,1.307942185E1
4.735148833E0,-2.786632122E0,1.199909229E1,-4.052122786E0,1.296777674E1
4.745071833E0,-8.999777786E-1,1.214976334E1,-2.840918841E0,1.250989725E1
4.754994833E0,1.729000472E-1,1.124541426E1,-2.186115034E0,1.145723942E1
4.764917833E0,3.424972216E-1,1.045596998E1,-2.007630823E0,1.065247361E1
4.774841833E0,8.987430659E-1,1.022936932E1,-2.551205678E0,1.058094449E1
4.784764833E0,1.950791355E0,1.015729537E1,-3.654098139E0,1.096944253E1
4.794687833E0,3.624776691E0,1.002231357E1,-4.732659166E0,1.166121083E1
4.804610833E0,5.750827226E0,9.547474051E0,-5.703238492E0,1.252011197E1
4.814533833E0,8.009300823E0,8.744022181E0,-6.720833525E0,1.362998264E1
4.824456833E0,9.525172770E0,7.797155653E0,-7.883804957E0,1.461776088E1
4.834380833E0,9.095502992E0,6.479335917E0,-1.244911155E1,1.672394532E1
4.844303833E0,5.584839392E0,4.300266924E0,-1.952757774E1,2.076075671E1
4.854226833E0,6.529058008E-1,1.699133626E0,-7.848788906E0,8.057098011E0
4.864149833E0,-4.389763237E0,-1.828360015E-1,1.542969698E1,1.604303585E1
4.874072833E0,-6.666707604E0,-2.516699504E0,1.481714852E1,1.644161357E1
4.883996833E0,-8.373488803E0,-6.992229701E0,8.446207116E0,1.379655774E1
4.893919833E0,-1.110925600E1,-1.495958201E1,3.151486684E0,1.889805628E1
4.903842833E0,-1.708851347E1,-3.068913474E1,-2.878514684E0,3.524380982E1
4.913765833E0,-1.900466475E1,-4.394969364E1,-3.203466092E0,4.798973899E1
4.923688833E0,-7.616234615E0,-3.714798786E1,3.091899464E0,3.804654878E1
4.933611833E0,-5.374560361E-1,-3.029948097E1,4.804331996E0,3.068271520E1
4.943534833E0,2.302707930E0,-2.971234333E1,-8.947425471E-1,2.981486834E1
4.953458833E0,6.435435022E0,-2.764603555E1,-2.933144635E0,2.853631797E1
4.963381833E0,9.201348120E0,-2.402443858E1,-2.042237130E0,2.580715383E1
4.973304833E0,9.940781164E0,-2.087478909E1,-2.411544347E0,2.324632220E1
4.983227833E0,1.004495516E1,-1.879666175E1,-4.819785603E0,2.185053661E1
4.993150833E0,6.685886471E0,-1.505013667E1,-6.593722658E0,1.773935935E1
5.003073833E0,2.040042086E0,-1.022035526E1,-6.388008256E0,1.222391438E1
5.012997833E0,-1.494052769E0,-5.803392525E0,-5.263541324E0,7.975990581E0
5.022920833E0,-3.822135715E0,-1.371614705E0,-4.080632640E0,5.756875113E0
5.032843833E0,-4.275263937E0,2.663323699E0,-2.682958065E0,5.706964065E0
5.042766833E0,-3.599635710E0,6.046728498E0,-7.364242132E-1,7.075494569E0
5.052689833E0,-2.336883590E0,8.676656410E0,2.101346049E-1,8.988300613E0
5.062613833E0,-9.564430976E-1,1.035085341E1,2.563115287E-1,1.039810778E1
5.072536833E0,7.095713139E-2,1.147081156E1,1.372447348E0,1.155284227E1
5.082459833E0,1.811534652E-1,1.184564381E1,3.171492348E0,1.226419413E1
5.092382833E0,-2.702875435E-1,1.218980975E1,3.728822047E0,1.275024043E1
5.102305833E0,-1.257220947E0,1.238974711E1,2.587180088E0,1.271927430E1
5.112228833E0,-2.323101995E0,1.234129708E1,1.361727648E0,1.263165542E1
5.122152833E0,-3.526248476E0,1.210037893E1,1.157386099E0,1.265674291E1
5.132075833E0,-4.436228429E0,1.197120107E1,1.607270944E0,1.286752104E1
5.141998833E0,-4.495149651E0,1.214136089E1,1.985922596E0,1.309820229E1
5.151921833E0,-3.487475004E0,1.211068523E1,1.635307174E0,1.270847781E1
5.161844833E0,-2.418083873E0,1.169916872E1,5.309369753E-1,1.195824286E1
5.171767833E0,-1.938817427E0,1.096938943E1,-4.779549889E-1,1.114966181E1
5.181691833E0,-1.770110053E0,9.948228178E0,-9.909710522E-1,1.015295805E1
5.191614833E0,-1.081407744E0,9.219565705E0,-1.286579817E0,9.371505862E0
5.201537833E0,2.654337698E-1,9.210496674E0,-1.500290287E0,9.335661466E0
5.211460833E0,1.699275128E0,9.527071946E0,-1.833899667E0,9.849661101E0
5.221383833E0,2.927901144E0,9.593730789E0,-2.664335268E0,1.037838899E1
5.231306833E0,3.869064298E0,9.443618145E0,-3.604138359E0,1.082318786E1
5.241230833E0,4.804994486E0,9.366222060E0,-4.629275715E0,1.149975136E1
5.251153833E0,6.034221303E0,9.262762595E0,-5.702064371E0,1.243881569E1
5.261076833E0,7.704776663E0,8.821799505E0,-7.201738361E0,1.374964601E1
5.270999833E0,9.339915437E0,8.101445925E0,-8.637278920E0,1.508210972E1
5.280922833E0,1.074489260E1,7.079704632E0,-9.675932701E0,1.609964622E1
5.290845833E0,1.162222287E1,5.914011905E0,-1.080185617E1,1.693315381E1
5.300769833E0,1.095874048E1,4.624433636E0,-1.197372590E1,1.687748474E1
5.310692833E0,8.659528161E0,2.861499286E0,-9.951003267E0,1.349807661E1
5.320615833E0,3.281910291E0,9.261381483E-1,-6.078533843E0,6.969737492E0
5.330538833E0,-5.924000704E0,1.051679038E0,1.338226285E1,1.467258573E1
5.340461833E0,-8.939750708E0,1.829418946E0,1.590261628E1,1.833464264E1
5.350384833E0,-8.812288424E0,4.605050701E-1,1.034280765E1,1.359566704E1
5.360307833E0,-1.116196748E1,-4.201999787E0,8.398273981E0,1.458688884E1
5.370231333E0,-1.391369172E1,-1.335590009E1,1.343796576E1,2.350637804E1
5.380154333E0,-1.896113574E1,-2.754983015E1,5.426054742E0,3.388155663E1
5.390077333E0,-1.508538018E1,-3.125436637E1,5.064742423E0,3.507215032E1
5.400000333E0,-6.640602125E0,-2.914540198E1,8.067846655E0,3.096194766E1
5.409923333E0,-1.520464350E0,-3.522310318E1,1.962423806E0,3.531047885E1
5.419847333E0,4.121548532E0,-3.791028469E1,-2.348333607E0,3.820590947E1
5.429770333E0,7.910887506E0,-3.168117335E1,-2.316263384E0,3.273597351E1
5.439693333E0,7.740753996E0,-2.354004354E1,-1.530805736E0,2.482732947E1
5.449616333E0,8.007261314E0,-1.749660352E1,-4.469121648E0,1.975399749E1
5.459539333E0,8.597542997E0,-1.235979299E1,-7.968493105E0,1.703464443E1
5.469462333E0,8.231812522E0,-7.655040831E0,-1.007064665E1,1.509239251E1
5.479385333E0,6.162744858E0,-3.678341280E0,-1.008259836E1,1.237612251E1
5.489309333E0,3.681087717E0,-1.304777521E0,-6.750539135E0,7.798886444E0
5.499232333E0,2.145713259E0,5.064308560E-1,-3.738551229E0,4.340198485E0
5.509155333E0,1.501913181E0,2.739135774E0,-2.671274158E0,4.110269288E0
5.519078333E0,1.295325936E0,5.047764448E0,-1.385631065E0,5.392380611E0
5.529001333E0,1.776933169E0,7.534456041E0,-4.940096158E-1,7.756904333E0
5.538924333E0,2.652963603E0,9.689614016E0,-9.613079810E-1,1.009212310E1
5.548848333E0,3.196871603E0,1.108379371E1,-1.450158598E0,1.162641093E1
5.558771333E0,3.145342138E0,1.163560715E1,-1.016653047E0,1.209603713E1
5.568694333E0,2.053707613E0,1.109614888E1,1.071330360E0,1.133534224E1
5.578617333E0,1.149314822E-1,9.790083799E0,3.637348205E0,1.044458003E1
5.588540333E0,-8.154219970E-1,8.976803929E0,4.694252899E0,1.016287027E1
5.598463333E0,-1.590490312E0,8.967911484E0,4.747503492E0,1.027092426E1
5.608387333E0,-2.370799779E0,9.587209974E0,4.885299561E0,1.101823209E1
5.618310333E0,-2.991453654E0,1.046479226E1,5.384677505E0,1.214312249E1
5.628233333E0,-3.205298610E0,1.117721701E1,5.524574479E0,1.287342389E1
5.638156333E0,-3.127466322E0,1.147568697E1,4.604312782E0,1.275429862E1
5.648079333E0,-3.312342417E0,1.166992913E1,1.740027298E0,1.225506235E1
5.658003333E0,-4.273951237E0,1.323541120E1,-5.932172188E0,1.512062947E1
5.667926333E0,-3.042506863E0,1.379738943E1,-8.258296900E0,1.636533748E1
5.677849333E0,-6.748113710E-1,1.213552186E1,-6.058351008E0,1.358049624E1
5.687772333E0,1.865706547E-1,9.910941653E0,-4.536094487E0,1.090127177E1
5.697695333E0,5.519602738E-1,8.708895033E0,-3.358347141E0,9.350294560E0
5.707618333E0,1.529747682E0,8.496392598E0,-3.128383166E0,9.182352443E0
5.717541333E0,2.632363862E0,8.595537402E0,-3.274872290E0,9.567517507E0
5.727465333E0,3.563887296E0,8.674861899E0,-3.384329828E0,9.970366593E0
5.737388333E0,4.434629215E0,8.662653497E0,-3.292027436E0,1.027350702E1
5.747311333E0,5.149472086E0,8.531581142E0,-2.761043537E0,1.034061415E1
5.757234333E0,5.750499197E0,8.330781325E0,-2.211434501E0,1.036149608E1
5.767157333E0,6.500676500E0,8.059219673E0,-2.583360686E0,1.067162448E1
5.777080333E0,7.040216630E0,7.472532858E0,-4.359910862E0,1.115402260E1
5.787004333E0,5.621680359E0,5.840928726E0,-9.563253347E0,1.253696746E1
5.796927333E0,1.360328117E0,3.660457571E0,-7.159129701E0,8.154911421E0
5.806850333E0,-1.526607142E0,2.155854962E0,1.371939459E1,1.397140036E1
5.816773333E0,-3.348122992E0,5.083814871E-1,1.387697939E1,1.428421984E1
5.826696333E0,-5.469839278E0,-2.309313383E0,1.020790536E1,1.180903899E1
5.836619333E0,-7.938493965E0,-6.327349241E0,9.654283969E0,1.400929098E1
5.846543333E0,-1.318944039E1,-1.595555463E1,1.354381908E1,2.473815063E1
5.856466333E0,-1.926536403E1,-3.197565550E1,1.933525697E1,4.204103897E1
5.866389333E0,-1.648973403E1,-4.118359109E1,1.739125891E1,4.764929580E1
5.876312333E0,-1.045975664E1,-4.122987765E1,6.360285437E0,4.300886596E1
5.886235333E0,-6.232792747E0,-4.185932340E1,-3.594426134E0,4.247317460E1
5.896158333E0,2.048586622E-1,-4.738304302E1,-2.185053034E1,5.217892686E1
5.906082333E0,6.234772614E0,-4.140978946E1,-2.832350799E1,5.055555516E1
5.916005333E0,6.075654674E0,-2.790190269E1,-6.163043650E0,2.921323092E1
5.925928333E0,5.031198117E0,-1.912436778E1,4.510880708E0,2.028305801E1
5.935851333E0,3.661574973E0,-1.217835389E1,2.935829092E0,1.305138028E1
5.945774333E0,1.306015523E0,-6.516496727E0,-2.240634327E0,7.013618775E0
5.955697333E0,-8.065792528E-1,-2.000987363E0,-6.335210822E0,6.692489573E0
5.965621333E0,-2.211912365E0,1.158676652E0,-6.412230347E0,6.881263395E0
5.975544333E0,-2.771219446E0,3.384717498E0,-4.582605579E0,6.335317171E0
5.985467333E0,-1.819714176E0,5.567723422E0,-2.593340714E0,6.405959713E0
5.995390333E0,-9.666470736E-3,7.481294911E0,-1.163793551E0,7.571280104E0
6.005313333E0,1.593065865E0,9.009631952E0,-6.414290321E-1,9.171845941E0
6.015236333E0,2.668864521E0,1.013550631E1,-1.746610093E-1,1.048245355E1
6.025160333E0,2.953170179E0,1.060558853E1,1.446173136E0,1.110365431E1
6.035083333E0,2.660389274E0,1.072905366E1,3.808740621E0,1.169173934E1
6.045006333E0,1.964185280E0,1.101747342E1,4.893086883E0,1.221413295E1
6.054929333E0,1.056034336E0,1.132267937E1,4.807079018E0,1.234610405E1
6.064852333E0,2.775046156E-1,1.170543343E1,4.766351992E0,1.264168865E1
6.074775333E0,-1.902941251E-1,1.220674563E1,4.883865824E0,1.314887813E1
6.084699333E0,-3.478885006E-1,1.251161127E1,5.100423303E0,1.351575972E1
6.094622333E0,-7.958940509E-1,1.253683499E1,5.078458822E0,1.354977575E1
6.104545333E0,-1.492060915E0,1.246934876E1,4.439133618E0,1.331979022E1
6.114468333E0,-2.223090195E0,1.270327013E1,2.621077566E0,1.315998669E1
6.124391333E0,-2.820354769E0,1.347998268E1,-3.533916076E-1,1.377640083E1
6.134314333E0,-2.334003836E0,1.409520216E1,-2.276097690E0,1.446730516E1
6.144238333E0,-8.627186626E-1,1.303255725E1,-2.271470203E0,1.325712672E1
6.154161333E0,5.413381487E-1,1.158190632E1,-1.003433661E0,1.163788985E1
6.164084333E0,1.772083488E0,1.079688370E1,2.697437525E-2,1.094137584E1
6.174007333E0,2.873765868E0,1.050844874E1,1.541326046E-1,1.089540188E1
6.183930333E0,3.902699529E0,1.045397257E1,-2.458906392E-1,1.116140978E1
6.193853333E0,4.693112692E0,1.033562493E1,-5.263628447E-1,1.136342850E1
6.203777333E0,5.178848498E0,1.015278951E1,-4.473868052E-1,1.140612824E1
6.213700333E0,5.302728193E0,9.953263800E0,-2.989283570E-1,1.128165523E1
6.223623333E0,5.102608992E0,9.775578026E0,-3.066642050E-1,1.103143632E1
6.233546333E0,4.706855696E0,9.540375531E0,-3.597417569E-1,1.064437269E1
6.243469333E0,4.243661199E0,9.254576494E0,-4.239196265E-1,1.018997322E1
6.253392333E0,3.814364180E0,8.931255873E0,-6.427914333E-1,9.732927946E0
6.263316333E0,3.493349117E0,8.680006864E0,-1.034119849E0,9.413575892E0
6.273239333E0,2.606959172E0,8.253606264E0,-7.645725632E-1,8.689236082E0
6.283162333E0,3.520199239E-2,6.912245638E0,-5.358943909E0,8.746351168E0
6.293085333E0,-3.349132806E0,3.879448661E0,-2.813282094E1,2.859584631E1
6.303008333E0,-4.401888024E0,4.331336689E-1,-2.122689906E1,2.168283807E1
6.312931333E0,-4.511064018E0,1.622942652E0,1.450431546E1,1.527608617E1
6.322855333E0,-4.246339808E0,3.862007586E0,1.252824309E1,1.378054350E1
6.332778333E0,-5.708000464E0,1.216950588E0,4.667946861E0,7.473417286E0
6.342701333E0,-7.997768945E0,-4.506795259E0,5.190379207E0,1.054587824E1
6.352624333E0,-1.373191114E1,-1.959418922E1,4.288987645E0,2.430829179E1
6.362547458E0,-2.018837275E1,-4.185998297E1,3.310384769E0,4.659170758E1
6.372470458E0,-1.605390713E1,-4.923955270E1,1.442201707E0,5.181063047E1
6.382393458E0,-5.664758551E0,-4.577870270E1,-3.428269315E-1,4.612913006E1
6.392317458E0,2.567643371E0,-4.202291446E1,1.971018044E0,4.214739665E1
6.402240458E0,8.028224167E0,-3.679573990E1,2.949960058E0,3.777672726E1
6.412163458E0,1.020257387E1,-2.878737931E1,1.956519288E0,3.060447171E1
6.422086458E0,9.973333783E0,-2.231102430E1,7.217417085E-1,2.444933748E1
6.432009458E0,8.957378894E0,-1.799706437E1,1.149585986E-1,2.010328774E1
6.441932458E0,7.012329504E0,-1.461747663E1,-1.018678522E-1,1.621276550E1
6.451856458E0,3.532794434E0,-1.215693905E1,-9.303142297E-1,1.269398629E1
6.461779458E0,-7.935000546E-1,-9.662252555E0,-2.686419032E0,1.006010010E1
6.471702458E0,-4.423774152E0,-6.207293624E0,-4.240779106E0,8.722641762E0
6.481625458E0,-6.048615979E0,-2.295815086E0,-4.650771250E0,7.967822500E0
6.491548458E0,-6.011889617E0,1.817443264E0,-2.959881029E0,6.943112594E0
6.501471458E0,-5.543758024E0,5.987870425E0,-3.711075747E-1,8.168571851E0
6.511395458E0,-4.258020791E0,9.602636683E0,1.169818522E0,1.056928795E1
6.521318458E0,-1.752929764E0,1.217817263E1,-1.554365337E-1,1.230466626E1
6.531241458E0,7.790599170E-1,1.409651895E1,-4.370060459E0,1.477891096E1
6.541164458E0,2.668929133E0,1.536287149E1,-7.563967524E0,1.733074170E1
6.551087458E0,4.234540127E0,1.520923941E1,-5.860801073E0,1.684046563E1
6.561010458E0,5.331325171E0,1.425259283E1,-1.566720504E0,1.529751756E1
6.570934458E0,5.711886524E0,1.308243634E1,2.212256620E0,1.444540991E1
6.580857458E0,5.383770018E0,1.211640498E1,4.632898650E0,1.404478548E1
6.590780458E0,4.783633730E0,1.165614958E1,5.286706238E0,1.366375635E1
6.600703458E0,4.345764986E0,1.149324148E1,4.703782107E0,1.315696922E1
6.610626458E0,3.590409096E0,1.123696971E1,3.732391772E0,1.237300586E1
6.620549458E0,2.500170595E0,1.079518567E1,2.702743873E0,1.140577534E1
6.630473458E0,2.028505822E0,1.023122523E1,1.438389323E0,1.052909158E1
6.640396458E0,2.157218241E0,9.285789515E0,5.271218133E-1,9.547635041E0
6.650319458E0,2.191182962E0,8.335342153E0,4.094302261E-1,8.628258497E0
6.660242458E0,1.648484167E0,8.017373489E0,2.981220442E-1,8.190522234E0
6.670165458E0,9.502817403E-1,8.289545590E0,-4.239658195E-1,8.354600439E0
6.680088458E0,4.338910295E-1,8.859608771E0,-1.647161819E0,9.021866273E0
6.690012458E0,3.388205655E-1,9.463875824E0,-2.821399666E0,9.881297539E0
6.699935458E0,5.310093346E-1,9.950114490E0,-3.543220312E0,1.057549807E1
6.709858458E0,9.173571653E-1,1.021587863E1,-3.337874284E0,1.078643245E1
6.719781458E0,1.493787890E0,9.957815273E0,-2.434333870E0,1.035931796E1
6.729704458E0,2.096026983E0,9.279440024E0,-1.479443209E0,9.627569188E0
6.739627458E0,2.591221098E0,8.554163674E0,-9.173772651E-1,8.984972119E0
6.749550458E0,2.853264360E0,7.962868668E0,-8.329306072E-1,8.499539301E0
6.759474458E0,2.833744308E0,7.622734380E0,-9.108523571E-1,8.183265744E0
6.769397458E0,2.673007273E0,7.538908696E0,-9.830426663E-1,8.058938211E0
6.779320458E0,2.491739787E0,7.719377745E0,-1.317211041E0,8.217822392E0
6.789243458E0,2.421472043E0,8.232892503E0,-2.922509719E0,9.065600304E0
6.799166458E0,1.350167556E0,8.255464509E0,-7.329040432E0,1.112162220E1
6.809089458E0,-1.607154585E0,6.953280813E0,-1.474945647E1,1.638528383E1
6.819013458E0,-3.224253529E0,4.722127161E0,-1.323983637E1,1.442177391E1
6.828936458E0,-1.573609108E0,2.074166436E0,6.184265535E0,6.709959183E0
6.838859458E0,-1.924617756E0,1.772410932E0,1.299388026E1,1.325467911E1
6.848782458E0,-4.757996321E0,-1.375670334E0,7.516167705E0,9.001320727E0
6.858705458E0,-7.550047057E0,-7.631310491E0,4.607557987E0,1.168202470E1
6.868628458E0,-1.149877061E1,-1.842189967E1,3.910229573E0,2.206531233E1
6.878552458E0,-1.802410657E1,-3.640604168E1,5.626599036E0,4.101130217E1
6.888475458E0,-1.748428460E1,-4.644360596E1,2.247847452E0,4.967656954E1
6.898398458E0,-8.951731068E0,-4.666769465E1,-3.658226273E0,4.765910021E1
6.908321458E0,-2.121075285E0,-4.696737147E1,-1.552854416E0,4.704087903E1
6.918244458E0,3.846285592E0,-4.118390918E1,1.512300467E0,4.139076396E1
6.928167458E0,7.454449174E0,-2.849770356E1,2.218012619E0,2.953993062E1
6.938090458E0,7.928664211E0,-2.023629419E1,2.650533500E0,2.189512838E1
6.948014458E0,7.894020628E0,-1.602310634E1,2.052297850E0,1.797963918E1
6.957937458E0,8.111879697E0,-1.385007284E1,5.887853801E-1,1.606156214E1
6.967860458E0,7.379510089E0,-1.114207876E1,-1.869662408E0,1.349439608E1
6.977783458E0,4.772984781E0,-8.025828563E0,-4.603291274E0,1.041084043E1
6.987706458E0,2.230918593E0,-4.589022898E0,-6.214968095E0,8.041265905E0
6.997629458E0,-5.460714698E-3,-7.785047239E-1,-6.110843802E0,6.160236310E0
7.007553458E0,-1.841801887E0,2.891662148E0,-5.025884167E0,6.083868492E0
7.017476458E0,-2.919438761E0,6.409737094E0,-4.658635755E0,8.444568633E0
7.027399458E0,-2.679158252E0,9.252302511E0,-4.200156745E0,1.050829707E1
7.037322458E0,-1.158223639E0,1.104541376E1,-3.291854943E0,1.158356405E1
7.047245458E0,1.886801474E-1,1.211441108E1,-1.840839143E0,1.225492736E1
7.057168458E0,1.056172477E0,1.243266099E1,4.756245811E-2,1.247753268E1
7.067092458E0,2.329664617E0,1.238926764E1,2.478399657E0,1.284771398E1
7.077015458E0,3.758246405E0,1.230361177E1,4.505536938E0,1.363096261E1
7.086938458E0,4.483513108E0,1.229951755E1,5.012837859E0,1.401815128E1
7.096861458E0,4.560367448E0,1.241586545E1,4.741041734E0,1.405091253E1
7.106784458E0,4.341030203E0,1.264573119E1,4.222709455E0,1.402106757E1
7.116707458E0,3.971098503E0,1.290333379E1,3.727898186E0,1.400581561E1
7.126631458E0,3.363253247E0,1.285414233E1,3.314702353E0,1.369407533E1
7.136554458E0,2.658649143E0,1.253431601E1,3.048882083E0,1.317092157E1
7.146477458E0,1.810523815E0,1.199419115E1,2.683890696E0,1.242344104E1
7.156400458E0,1.093633541E0,1.085698372E1,1.958121425E0,1.108622431E1
7.166323458E0,6.765990110E-1,9.436783335E0,8.168688905E-1,9.496206648E0
7.176246458E0,1.892202108E-1,8.515655081E0,-6.679063940E-1,8.543903364E0
7.186169458E0,-5.908026695E-2,8.177394240E0,-2.405418220E0,8.524042694E0
7.196093458E0,5.916190870E-2,8.370920706E0,-3.753596699E0,9.174164909E0
7.206016458E0,1.413453287E-1,8.890796065E0,-4.301326439E0,9.877633436E0
7.215939458E0,3.510548410E-1,9.280065676E0,-4.140202904E0,1.016779910E1
7.225862458E0,8.788479146E-1,9.436287491E0,-3.598527955E0,1.013732207E1
7.235785458E0,1.822176877E0,9.269969289E0,-3.067745785E0,9.932961461E0
7.245708458E0,2.715431162E0,8.937439304E0,-2.405220584E0,9.645541652E0
7.255632458E0,3.080268767E0,8.804727389E0,-1.792304329E0,9.498612261E0
7.265555458E0,3.251026175E0,8.755776839E0,-1.274797677E0,9.426447282E0
7.275478458E0,3.256762586E0,8.741415492E0,-7.172621566E-1,9.355923918E0
7.285401458E0,2.991588140E0,8.843503200E0,-3.166068470E-1,9.341166327E0
7.295324458E0,2.780141420E0,9.122431174E0,-6.000324994E-1,9.555520700E0
7.305247458E0,2.920988274E0,9.436778657E0,-2.742895533E0,1.025224072E1
7.315171458E0,1.891355285E0,8.831880105E0,-6.646622418E0,1.121413931E1
7.325094458E0,-3.455420130E-1,6.927478804E0,-1.492744338E1,1.646019221E1
7.335017458E0,-1.415771123E0,3.824340407E0,-1.525447464E1,1.579015465E1
7.344940458E0,-6.973023936E-1,1.222387914E0,7.573552279E0,7.703191350E0
7.354863458E0,-1.652629258E0,1.259041770E0,1.432070588E1,1.447062495E1
7.364786167E0,-4.586616769E0,-1.750904288E0,8.270285447E0,9.617709737E0
7.374709167E0,-7.373089262E0,-8.389036549E0,6.116119745E0,1.273362871E1
7.384633167E0,-1.233426872E1,-2.360592763E1,4.503042516E0,2.701206020E1
7.394556167E0,-2.018910248E1,-5.050034805E1,4.140889367E0,5.454385370E1
7.404479167E0,-1.941955979E1,-6.035080610E1,-4.054140075E0,6.352775103E1
7.414402167E0,-1.185013213E1,-5.146544736E1,-7.826035051E0,5.338880715E1
7.424325167E0,-5.554390016E0,-3.321512021E1,-1.169132059E0,3.369662192E1
7.434248167E0,-8.190399617E-2,-2.137125980E1,5.277595106E0,2.201341554E1
7.444172167E0,3.350939888E0,-1.690446885E1,7.432794596E0,1.876795942E1
7.454095167E0,4.989946010E0,-1.571550304E1,7.580661324E0,1.814781042E1
7.464018167E0,4.703275738E0,-1.543354562E1,6.869042315E0,1.753564585E1
7.473941167E0,3.664415551E0,-1.377638155E1,5.705769167E0,1.535488300E1
7.483864167E0,3.609601412E0,-1.042665906E1,4.602852148E0,1.195536237E1
7.493787167E0,3.046616871E0,-5.886611853E0,2.643686410E0,7.136045915E0
7.503711167E0,2.374164560E0,-7.589440334E-1,-8.306520934E-1,2.627286871E0
7.513634167E0,1.679309518E0,4.782490892E0,-8.453890357E0,9.857005720E0
7.523557167E0,6.701514325E-1,8.669493570E0,-1.615828461E1,1.834937011E1
7.533480167E0,-4.305793127E-1,1.019376680E1,-1.611353236E1,1.907207921E1
7.543403167E0,-1.560661326E0,1.095066197E1,-9.538116167E0,1.460576329E1
7.553326167E0,-1.171561869E0,1.044630102E1,-1.526393427E0,1.062203555E1
7.563249167E0,4.005702326E-1,8.882838589E0,2.433136361E0,9.218754279E0
7.573173167E0,1.840373851E0,8.409422867E0,4.020242597E0,9.500932554E0
7.583096167E0,2.978730405E0,9.093564055E0,4.419740158E0,1.054039113E1
7.593019167E0,3.290511838E0,1.015638789E1,3.650365861E0,1.128294527E1
7.602942167E0,2.832380737E0,1.121426380E1,2.585459837E0,1.185186466E1
7.612865167E0,2.262941893E0,1.210423575E1,2.088530706E0,1.248981144E1
7.622788167E0,1.691054235E0,1.295368533E1,2.919680836E0,1.338589423E1
7.632712167E0,1.441423735E0,1.329342727E1,4.116576644E0,1.399067955E1
7.642635167E0,1.299817036E0,1.332466193E1,5.168452733E0,1.435092483E1
7.652558167E0,1.351790743E-1,1.300549283E1,4.984443780E0,1.392859637E1
7.662481167E0,-1.652083566E0,1.235394110E1,3.639277201E0,1.298435903E1
7.672404167E0,-3.230401876E0,1.084588103E1,1.485306212E0,1.141379718E1
7.682327167E0,-4.030705605E0,9.310957686E0,-1.110635929E0,1.020656812E1
7.692251167E0,-4.363893401E0,8.868435143E0,-2.902240346E0,1.030124781E1
7.702174167E0,-4.394188118E0,9.233347008E0,-3.388586601E0,1.077246979E1
7.712097167E0,-4.004740459E0,9.960617259E0,-2.921720930E0,1.112601885E1
7.722020167E0,-3.117271702E0,1.039030107E1,-2.905225934E0,1.123014145E1
7.731943167E0,-2.142110351E0,1.018992868E1,-3.038921936E0,1.084704245E1
7.741866167E0,-7.709602077E-1,9.893867784E0,-2.841470819E0,1.032264287E1
7.751789167E0,6.418498854E-1,9.587543850E0,-2.555190555E0,9.942935539E0
7.761713167E0,1.756344684E0,9.315226153E0,-2.482917801E0,9.799135969E0
7.771636167E0,2.562110735E0,9.025410663E0,-2.698569546E0,9.762413977E0
7.781559167E0,3.048480964E0,8.836666051E0,-3.144923769E0,9.862578192E0
7.791482167E0,3.302529328E0,8.744895170E0,-3.867327383E0,1.011613131E1
7.801405167E0,3.150321334E0,8.352228912E0,-5.354677781E0,1.040945851E1
7.811328167E0,2.075078602E0,7.538214047E0,-6.885333243E0,1.041817816E1
7.821252167E0,1.157135929E-1,5.928216546E0,-9.605422297E0,1.128810341E1
7.831175167E0,-1.781645732E0,3.269874675E0,-1.562037702E1,1.605809828E1
7.841098167E0,-1.779977375E0,-1.157304311E0,-1.910954743E1,1.922712864E1
7.851021167E0,1.226279967E0,-6.842512329E0,-9.070095670E0,1.142761449E1
7.860944167E0,3.688900766E0,-1.034120317E1,7.988240322E0,1.357794002E1
7.870867167E0,1.903420138E0,-1.438531410E1,1.143621125E1,1.847558382E1
7.880790167E0,-2.306863692E0,-2.700412354E1,2.856405192E0,2.725258445E1
7.890714167E0,-4.284372145E0,-4.310905582E1,1.703420219E0,4.335490951E1
7.900637167E0,-5.832341067E-1,-5.169223981E1,3.374112403E0,5.180552531E1
7.910560167E0,5.873509997E0,-3.438057554E1,-1.235471351E-1,3.487889559E1
7.920483167E0,3.220624162E0,-1.675178636E1,-1.333375669E0,1.711060071E1
7.930406167E0,1.410128706E0,-1.402174476E1,4.734762994E0,1.486659913E1
7.940329167E0,2.639892152E0,-1.526406291E1,5.595980092E0,1.647044748E1
7.950253167E0,3.289434196E0,-1.716196853E1,4.591131404E0,1.806743006E1
7.960176167E0,9.939062814E-1,-1.812350339E1,3.531063366E0,1.849101493E1
7.970099167E0,-1.638854679E0,-1.780585690E1,1.240304221E0,1.792408266E1
7.980022167E0,-3.853145838E0,-1.545445877E1,-2.536516888E0,1.612826546E1
7.989945167E0,-5.756945168E0,-1.112280282E1,-5.695143022E0,1.375840886E1
7.999868167E0,-7.241423414E0,-6.116875790E0,-6.854556423E0,1.169783425E1
8.009791167E0,-7.905087653E0,-1.536523728E0,-5.515153445E0,9.760544733E0
8.019715167E0,-7.534746063E0,2.415978876E0,-3.598856569E0,8.692589992E0
8.029638167E0,-6.354322447E0,5.829431931E0,-2.987175831E0,9.125947065E0
8.039561167E0,-4.620864496E0,8.084581971E0,-2.675853698E0,9.688810419E0
8.049484167E0,-2.440959058E0,8.950933508E0,-2.152823620E0,9.524292170E0
8.059407167E0,-8.023030378E-1,9.227217956E0,-1.507412049E0,9.383897509E0
8.069330167E0,5.448773222E-1,9.954451954E0,-1.390211628E0,1.006581807E1
8.079254167E0,2.263951123E0,1.142347367E1,-2.665658492E0,1.194683894E1
8.089177167E0,4.614396306E0,1.284117554E1,-4.082938782E0,1.424285195E1
8.099100167E0,7.155292758E0,1.328606913E1,-3.834797568E0,1.556995568E1
8.109023167E0,8.591918560E0,1.214043937E1,-1.998069602E0,1.500678563E1
8.118946167E0,7.063218992E0,9.328763042E0,-7.812206094E-1,1.172711337E1
8.128869167E0,4.349003174E0,7.167057356E0,-2.699055742E-1,8.387692696E0
8.138793167E0,2.227086621E0,6.150323033E0,1.099058442E0,6.632821246E0
8.148716167E0,6.584842638E-1,6.510177641E0,2.453515661E0,6.988258262E0
8.158639167E0,-2.730573696E-1,8.387253149E0,2.758442110E0,8.833435265E0
8.168562167E0,-3.345523173E-1,9.976134599E0,2.246434180E0,1.023140525E1
8.178485167E0,-8.872294597E-2,1.099415122E1,1.701818667E0,1.112544019E1
8.188408167E0,-1.393751825E-1,1.177781143E1,1.272758169E0,1.184720140E1
8.198331167E0,-3.213680155E-1,1.206955475E1,9.737736601E-1,1.211303696E1
8.208255167E0,-4.331357885E-1,1.178957018E1,4.698073689E-1,1.180687472E1
8.218178167E0,-3.586331248E-1,1.100493465E1,-3.980123681E-1,1.101796797E1
8.228101167E0,2.440144687E-1,1.002442792E1,-1.015228080E0,1.007865995E1
8.238024167E0,1.419554856E0,9.533994464E0,-1.308261877E0,9.727473237E0
8.247947167E0,2.603556384E0,9.371630734E0,-1.441521676E0,9.832799866E0
8.257870167E0,3.399781095E0,9.231260721E0,-1.523232422E0,9.954643289E0
8.267794167E0,3.571516158E0,9.018434350E0,-1.718770330E0,9.850992704E0
8.277717167E0,3.316017977E0,8.861637754E0,-1.819417868E0,9.635085900E0
8.287640167E0,2.821197937E0,8.705277945E0,-1.944701480E0,9.355366682E0
8.297563167E0,2.326352170E0,8.510020704E0,-2.930293533E0,9.296181312E0
8.307486167E0,1.778362374E0,8.146411598E0,-5.340053895E0,9.901654925E0
8.317409167E0,8.458243024E-1,7.267996085E0,-7.636339681E0,1.057605170E1
8.327332167E0,-2.082140869E-1,5.115631911E0,-7.138872607E0,8.785018215E0
8.337256167E0,-8.579477732E-1,9.532569498E-1,-9.342703097E-1,1.586705456E0
8.347179167E0,-1.968873285E0,-3.569777781E0,5.644766335E0,6.962985164E0
8.357102167E0,-3.538202524E0,-8.346200432E0,6.662170165E0,1.124999778E1
8.367025417E0,-5.283908345E0,-1.651261185E1,1.988743293E0,1.745110705E1
8.376948417E0,-6.091912857E0,-2.611679219E1,6.687416103E0,2.763909859E1
8.386871417E0,-6.346849705E0,-3.624537657E1,9.027327965E0,3.788802547E1
8.396795417E0,5.231883913E-1,-3.354238887E1,1.287245815E0,3.357115695E1
8.406718417E0,7.730048329E0,-2.284654739E1,-2.625251309E0,2.426129261E1
8.416641417E0,1.068334013E1,-2.200699247E1,1.414673016E0,2.450393384E1
8.426564417E0,1.251405073E1,-2.596539375E1,-2.663886201E-1,2.882488683E1
8.436487417E0,1.133845866E1,-2.734441980E1,-3.189739169E0,2.977335008E1
8.446410417E0,6.342851964E0,-2.399483062E1,-3.948147597E0,2.513108706E1
8.456334417E0,9.833143426E-1,-1.926404490E1,-6.182574520E0,2.025572908E1
8.466257417E0,-3.134447021E0,-1.597821610E1,-8.685045995E0,1.845421826E1
8.476180417E0,-6.739932286E0,-1.308259305E1,-1.006590339E1,1.782984406E1
8.486103417E0,-9.243019472E0,-9.310651876E0,-9.039669684E0,1.593227150E1
8.496026417E0,-1.013248798E1,-4.390544425E0,-7.613755980E0,1.341318281E1
8.505949417E0,-9.704516230E0,5.370439535E-1,-5.806248305E0,1.132159754E1
8.515872417E0,-7.891483521E0,5.002936184E0,-3.624022985E0,1.002189729E1
8.525796417E0,-5.411387587E0,8.263682186E0,-9.643157887E-1,9.924790367E0
8.535719417E0,-2.666853079E0,9.969172904E0,1.581343367E0,1.044017052E1
8.545642417E0,5.047946589E-1,1.061566563E1,1.964320058E0,1.080766985E1
8.555565417E0,3.765124485E0,1.098066637E1,2.239261401E0,1.182224547E1
8.565488417E0,7.605518423E0,1.120058015E1,2.945171188E0,1.385535779E1
8.575411417E0,1.134552093E1,1.122524604E1,1.985051361E0,1.608314095E1
8.585334417E0,1.411930321E1,1.085913550E1,-2.093011428E0,1.793477749E1
8.595258417E0,1.323700164E1,9.728102143E0,-3.872572335E0,1.687752945E1
8.605181417E0,8.048414603E0,8.279668474E0,-1.408732245E0,1.163247240E1
8.615104417E0,2.696764510E0,7.589892324E0,1.178440826E0,8.140499192E0
8.625027417E0,-1.949413313E0,7.871015927E0,2.557685562E0,8.502638380E0
8.634950417E0,-3.402515253E0,8.606799139E0,2.734182597E0,9.650381130E0
8.644873417E0,-3.481983592E0,9.420492407E0,2.067552066E0,1.025400695E1
8.654797417E0,-3.637836740E0,9.988424277E0,6.307923621E-1,1.064896120E1
8.664720417E0,-3.939715912E0,1.064486077E1,-1.950499579E0,1.151689502E1
8.674643417E0,-4.168243811E0,1.099956925E1,-4.365890810E0,1.254694316E1
8.684566417E0,-3.862564241E0,1.113735538E1,-4.986871544E0,1.279956933E1
8.694489417E0,-2.655168588E0,1.120547076E1,-3.562171723E0,1.205410978E1
8.704412417E0,-7.154251076E-1,1.114905682E1,-2.277690471E0,1.140180578E1
8.714335417E0,1.548996131E0,1.060248366E1,-2.436649368E0,1.098859904E1
8.724259417E0,3.045719324E0,9.458209287E0,-3.384595876E0,1.049712429E1
8.734182417E0,3.980827101E0,8.531305153E0,-3.576465826E0,1.007081227E1
8.744105417E0,5.115426089E0,7.882315087E0,-3.196668119E0,9.925581205E0
8.754028417E0,6.175559615E0,7.213153296E0,-2.636439371E0,9.854842951E0
8.763951417E0,6.992896283E0,6.478057131E0,-1.950742239E0,9.729913561E0
8.773874417E0,7.394118773E0,5.851389395E0,-1.425902009E0,9.536506007E0
8.783798417E0,7.130040972E0,5.461104122E0,-1.386497623E0,9.087547423E0
8.793721417E0,5.869763685E0,5.452809847E0,-1.795160694E0,8.210350959E0
8.803644417E0,4.118168549E0,5.729754446E0,-3.280271609E0,7.781361065E0
8.813567417E0,1.910487960E0,6.179638048E0,-5.057551517E0,8.210768417E0
8.823490417E0,-1.381975971E0,6.589021497E0,-3.179692483E0,7.445502411E0
8.833413417E0,-4.222348098E0,7.116848484E0,2.354900323E0,8.603680104E0
8.843336417E0,-4.249324519E0,6.913056062E0,7.721358197E0,1.120118187E1
8.853260417E0,-6.537894613E0,4.015683523E0,3.596535809E0,8.473774244E0
8.863183417E0,-6.498282065E0,1.249354103E0,5.946751635E0,8.896764046E0
8.873106417E0,-7.003038864E0,-3.166916317E0,1.066093594E1,1.314258222E1
8.883029417E0,-1.287761188E1,-1.550082602E1,1.779376369E1,2.688357345E1
8.892952417E0,-1.817436364E1,-3.358148569E1,1.775626550E1,4.211067132E1
8.902875417E0,-1.214952127E1,-4.530341294E1,8.616674502E0,4.768917247E1
8.912799417E0,2.981479181E-1,-5.041234979E1,-3.548533677E0,5.053796588E1
8.922722417E0,1.229902405E1,-5.476678064E1,-1.215625609E1,5.743205391E1
8.932645417E0,1.611096310E1,-4.416473084E1,-2.568208212E0,4.708165541E1
8.942568417E0,1.089619281E1,-2.646683693E1,3.425144563E0,2.882623961E1
8.952491417E0,8.560653498E0,-1.575024953E1,-5.076701149E0,1.863137255E1
8.962414417E0,7.239317247E0,-1.047931440E1,-1.359304562E1,1.862779197E1
8.972337417E0,4.784157641E0,-9.059551971E0,-1.537019455E1,1.847177649E1
8.982261417E0,1.510334780E0,-8.993921653E0,-1.279565965E1,1.571307238E1
8.992184417E0,-1.738884313E0,-8.132447278E0,-9.285189006E0,1.246495697E1
9.002107417E0,-3.394430893E0,-4.786933022E0,-7.051837971E0,9.174165227E0
9.012030417E0,-3.309020322E0,-5.809074265E-1,-5.726793416E0,6.639520446E0
9.021953417E0,-2.653830160E0,4.118275260E0,-4.783144026E0,6.847004630E0
9.031876417E0,-5.540369855E-1,8.104208735E0,-5.597353603E0,9.864863078E0
9.041799417E0,3.751521815E0,9.813134108E0,-5.318931413E0,1.177550629E1
9.051723417E0,7.681300676E0,9.748149322E0,-2.280352124E0,1.261858951E1
9.061646417E0,9.812725972E0,9.707333418E0,2.411526038E-1,1.380507398E1
9.071569417E0,1.008227209E1,1.013522681E1,1.723258653E0,1.439946712E1
9.081492417E0,7.522053512E0,9.870114055E0,4.159573560E0,1.308825782E1
9.091415417E0,2.923597594E0,9.126066388E0,7.038123912E0,1.188981492E1
9.101338417E0,1.283171475E-1,9.188521083E0,7.644515843E0,1.195340987E1
9.111262417E0,-1.101699629E0,9.649917853E0,6.909855881E0,1.191976363E1
9.121185417E0,-2.331624750E0,1.013245991E1,6.490936208E0,1.225705799E1
9.131108417E0,-3.055026045E0,1.070481812E1,6.822301428E0,1.305642033E1
9.141031417E0,-3.101012934E0,1.113511355E1,6.955265942E0,1.349009857E1
9.150954417E0,-2.781050077E0,1.138667130E1,6.288076417E0,1.330151975E1
9.160877417E0,-2.591608769E0,1.122587520E1,4.708227160E0,1.244604809E1
9.170800417E0,-3.250485308E0,1.110455834E1,1.153681376E0,1.162789110E1
9.180724417E0,-5.250934142E0,1.241822773E1,-1.081069950E1,1.728166407E1
9.190647417E0,-4.928150296E0,1.265257360E1,-1.005544506E1,1.689633864E1
9.200570417E0,-3.168232233E0,1.174889929E1,-6.086650947E0,1.360594171E1
9.210493417E0,-1.348107436E0,1.057823643E1,-4.922543986E0,1.174512320E1
9.220416417E0,3.168564501E-1,9.840859265E0,-4.544951849E0,1.084433015E1
9.230339417E0,1.719609552E0,9.465051699E0,-4.295149441E0,1.053530111E1
9.240262417E0,2.801563572E0,9.098225455E0,-3.923853586E0,1.029675152E1
9.250186417E0,3.602674801E0,8.861997943E0,-3.407139816E0,1.015494338E1
9.260109417E0,4.507630241E0,8.707565376E0,-2.947300744E0,1.023850608E1
9.270032417E0,5.541736642E0,8.534814067E0,-2.463672860E0,1.047012799E1
9.279955417E0,6.631057715E0,8.284519324E0,-2.023020841E0,1.080262932E1
9.289878417E0,7.729483488E0,7.949265706E0,-1.725835959E0,1.122115190E1
9.299801417E0,8.363848498E0,7.488225031E0,-1.340743160E0,1.130597488E1
9.309725417E0,8.265998853E0,6.997957633E0,-1.246790099E0,1.090195550E1
9.319648417E0,7.701067774E0,6.605436385E0,-1.695446810E0,1.028653365E1
9.329571417E0,6.125303966E0,5.871852311E0,-6.157695787E0,1.048404577E1
9.339494417E0,7.969658455E-1,3.642093805E0,-1.715417770E1,1.755465222E1
9.349417417E0,-4.280618233E0,1.692304078E0,6.439795876E0,7.915715790E0
9.359340417E0,-4.127378790E0,-1.042102468E-1,1.872970528E1,1.917936327E1
9.369263792E0,-4.400536440E0,-3.208713968E0,1.276093070E1,1.387450606E1
9.379187792E0,-8.924194776E0,-9.561054794E0,1.081234842E1,1.696944016E1
9.389110792E0,-1.730931369E1,-2.187066581E1,1.649897146E1,3.240608620E1
9.399033792E0,-2.217451520E1,-3.641455523E1,1.841801828E1,4.644300114E1
9.408956792E0,-1.432514274E1,-4.091011448E1,9.756272274E0,4.443008024E1
9.418879792E0,-7.301915783E0,-4.417478806E1,2.196498374E0,4.482805460E1
9.428802792E0,-1.434102437E0,-4.860561629E1,-6.651587874E0,4.907959052E1
9.438726792E0,6.971127684E0,-4.646448754E1,-1.371014663E1,4.894398169E1
9.448649792E0,8.965503600E0,-3.245162587E1,-5.000906031E0,3.403670574E1
9.458572792E0,5.684550791E0,-1.995644879E1,7.517689151E-1,2.076388987E1
9.468495792E0,2.501355826E0,-1.258770225E1,-3.785714285E0,1.338053294E1
9.478418792E0,-1.067731399E0,-8.381039897E0,-7.595952378E0,1.136135435E1
9.488341792E0,-4.611007259E0,-5.469920554E0,-9.772632784E0,1.211139011E1
9.498264792E0,-7.439356341E0,-2.337227406E0,-8.561687286E0,1.158055024E1
9.508188792E0,-8.113985864E0,7.036270344E-1,-5.436987866E0,9.792481537E0
9.518111792E0,-7.894949166E0,3.731289572E0,-2.619502326E0,9.116717426E0
9.528034792E0,-6.448883618E0,7.264994709E0,-2.146202379E0,9.948589483E0
9.537957792E0,-2.339558252E0,9.693152751E0,-4.708422457E0,1.102723833E1
9.547880792E0,1.900540823E0,9.552803203E0,-3.964771231E0,1.051605988E1
9.557803792E0,4.163054115E0,8.649765065E0,3.660134804E-1,9.606426032E0
9.567726792E0,5.384994425E0,8.650322889E0,3.680245718E0,1.083376479E1
9.577650792E0,6.322113644E0,9.449837244E0,4.629481537E0,1.227601907E1
9.587573792E0,6.578145676E0,1.025502106E1,3.998931835E0,1.282298379E1
9.597496792E0,5.952005358E0,1.113180520E1,2.710971490E0,1.291095741E1
9.607419792E0,4.718784893E0,1.183108541E1,2.011500657E0,1.289525679E1
9.617342792E0,3.269667099E0,1.208919321E1,2.579209163E0,1.278638476E1
9.627265792E0,2.230064900E0,1.221090183E1,3.439580169E0,1.288060653E1
9.637189792E0,1.444786761E0,1.220050080E1,3.888544589E0,1.288644279E1
9.647112792E0,9.206028816E-1,1.206556227E1,3.776894345E0,1.267636515E1
9.657035792E0,5.331548242E-1,1.190271263E1,3.214423774E0,1.234063784E1
9.666958792E0,1.011885519E-1,1.184529765E1,2.271842086E0,1.206161607E1
9.676881792E0,-2.245370279E-1,1.183009372E1,1.065551045E0,1.188010663E1
9.686804792E0,-1.660457218E-1,1.163483882E1,-2.967590582E-1,1.163980719E1
9.696727792E0,4.215769395E-1,1.072640136E1,-1.747652067E0,1.087601495E1
9.706651792E0,1.152610458E0,9.563434610E0,-2.711012421E0,1.000686668E1
9.716574792E0,1.900346256E0,8.795663036E0,-3.039634126E0,9.498125065E0
9.726497792E0,2.458886329E0,8.517598695E0,-3.108930649E0,9.394735722E0
9.736420792E0,2.981519819E0,8.622639831E0,-3.093848341E0,9.633860890E0
9.746343792E0,3.383585770E0,8.762539144E0,-2.679582467E0,9.767850690E0
9.756266792E0,3.675223837E0,8.859705834E0,-2.051087476E0,9.808599164E0
9.766189792E0,3.851866760E0,8.904017204E0,-1.190279099E0,9.774209136E0
9.776113792E0,3.930742190E0,8.928667896E0,-3.870120013E-1,9.763279308E0
9.786036792E0,3.857543237E0,8.911584671E0,2.062640405E-1,9.712853650E0
9.795959792E0,3.560091868E0,8.876267488E0,1.753158975E-1,9.565203306E0
9.805882792E0,3.022690650E0,8.860191153E0,-1.007750003E0,9.415689359E0
9.815805792E0,1.316608778E0,8.560292140E0,-3.128758557E0,9.208756176E0
9.825728792E0,-1.266195546E0,7.489843540E0,-7.032976023E0,1.035199300E1
9.835651792E0,-3.340137742E0,5.597641286E0,-7.870910093E0,1.021965429E1
9.845575792E0,-4.278191931E0,2.106369976E0,-8.616468680E-1,4.845839040E0
9.855498792E0,-3.260206011E0,2.082264830E0,1.168513189E1,1.230882112E1
9.865421792E0,-4.244017294E0,-9.937360543E-1,8.986620820E0,9.987920098E0
9.875344792E0,-8.434572326E0,-1.132376929E1,9.343676366E0,1.693145148E1
9.885267792E0,-1.674729803E1,-3.106753379E1,1.715590380E1,3.924268954E1
9.895190792E0,-1.769352955E1,-5.180544190E1,1.797685288E1,5.761971918E1
9.905114792E0,-7.256168922E0,-5.584115740E1,7.819706025E0,5.685098636E1
9.915037792E0,8.141446728E-1,-5.683216690E1,-3.769094160E0,5.696283084E1
9.924960792E0,9.577048098E0,-5.324429199E1,-1.447488760E1,5.600175757E1
9.934883792E0,1.347727309E1,-3.463442422E1,-1.015344674E1,3.852626002E1
9.944806792E0,1.158654316E1,-2.000582034E1,-3.281632841E-1,2.312117041E1
9.954729792E0,7.155630727E0,-1.194311105E1,2.831490791E-1,1.392555658E1
9.964652792E0,2.869298303E0,-6.883491955E0,-1.701370186E0,7.649182620E0
9.974576792E0,-4.114051232E-1,-4.258231291E0,-1.994655998E0,4.720216144E0
9.984499792E0,-3.528363122E0,-2.133146716E0,-2.471762483E0,4.807210314E0
9.994422792E0,-5.837690538E0,5.811816609E-1,-3.135198680E0,6.651757189E0
1.000434579E1,-7.468933312E0,4.257641891E0,-4.362708755E0,9.640835388E0
1.001426879E1,-8.389448193E0,8.206626810E0,-5.939132713E0,1.315313126E1
1.002419179E1,-6.024575737E0,1.068301736E1,-8.079684927E0,1.468685403E1
1.003411479E1,-2.165240182E0,1.048495112E1,-7.751310559E0,1.321761251E1
1.004403879E1,-5.518075883E-2,9.539439976E0,-3.527185493E0,1.017079139E1
1.005396179E1,1.117669983E0,9.402004681E0,-1.140546191E-1,9.468890466E0
1.006388479E1,2.282886453E0,1.004982004E1,1.464605899E0,1.040939594E1
1.007380779E1,3.583164396E0,1.084859882E1,1.751094908E0,1.155843834E1
1.008373079E1,4.618388200E0,1.156283387E1,1.910689981E0,1.259680010E1
1.009365379E1,5.013206234E0,1.188909915E1,2.619394737E0,1.316602233E1
1.010357779E1,4.789967142E0,1.203604435E1,3.668905628E0,1.346369256E1
1.011350079E1,4.280810021E0,1.216077482E1,4.298435576E0,1.358993477E1
1.012342379E1,3.742812387E0,1.237112022E1,4.431724026E0,1.366358071E1
1.013334679E1,3.031894167E0,1.244466065E1,4.174316729E0,1.347170669E1
1.014326979E1,2.386870998E0,1.246401142E1,3.337072631E0,1.312192012E1
1.015319279E1,1.959209592E0,1.245767070E1,2.263016299E0,1.281223261E1
1.016311579E1,1.700687231E0,1.233477042E1,1.464097191E0,1.253724367E1
1.017303879E1,1.462634510E0,1.158264424E1,5.808834529E-1,1.168907066E1
1.018296279E1,1.292661214E0,1.001257094E1,-4.271928247E-1,1.010470403E1
1.019288579E1,1.201291599E0,8.991147149E0,-1.375344644E0,9.174715334E0
1.020280879E1,1.177310998E0,8.411699188E0,-2.290161413E0,8.797021297E0
1.021273179E1,1.323529396E0,8.003258895E0,-2.886559868E0,8.610232917E0
1.022265479E1,1.829906019E0,7.734374099E0,-3.035489620E0,8.507837326E0
1.023257779E1,2.725051001E0,7.714150919E0,-2.815758272E0,8.652313101E0
1.024250179E1,3.564965522E0,7.861680847E0,-2.354072649E0,8.947438905E0
1.025242479E1,4.266052526E0,8.185379782E0,-1.612865414E0,9.370217777E0
1.026234779E1,4.616570008E0,8.538304271E0,-7.199652513E-1,9.733124289E0
1.027227079E1,4.490659867E0,8.779921746E0,4.027335562E-2,9.861778433E0
1.028219379E1,4.000744764E0,8.785577758E0,6.962982074E-1,9.678696524E0
1.029211679E1,3.361402895E0,8.669549704E0,1.180455850E0,9.373024992E0
1.030203979E1,2.589256141E0,8.354004711E0,4.187998044E-1,8.756085618E0
1.031196379E1,1.090595986E-1,7.175665042E0,-3.467093657E0,7.970119272E0
1.032188679E1,-1.952559261E0,5.297921782E0,-1.155578564E1,1.286144022E1
1.033180979E1,-1.694573090E0,2.299114670E0,-5.990198786E0,6.636263084E0
1.034173279E1,-1.138268700E0,1.472400237E0,8.904437034E0,9.096846541E0
1.035165579E1,-2.458328797E0,9.371934789E-1,8.895668550E0,9.276563536E0
1.036157879E1,-6.335262278E0,-7.710591134E0,3.102817969E0,1.045065754E1
1.037150167E1,-1.053416830E1,-1.458416621E1,8.608411217E0,1.994420591E1
1.038142567E1,-1.821531403E1,-3.235969829E1,1.437882486E1,3.982082800E1
1.039134867E1,-1.792576108E1,-4.816750079E1,1.412728349E1,5.330123058E1
1.040127167E1,-9.844210889E0,-5.143735734E1,2.097041913E0,5.241285914E1
1.041119467E1,-3.496090584E0,-5.034019983E1,-7.778733416E0,5.105748781E1
1.042111767E1,3.484539995E0,-4.522362418E1,-1.005836399E1,4.645954034E1
1.043104067E1,6.773343861E0,-3.050063220E1,-9.410812926E-1,3.125783719E1
1.044096367E1,7.447817262E0,-2.024711856E1,4.870155272E0,2.211637864E1
1.045088767E1,8.639762818E0,-1.422899581E1,1.329591935E0,1.669962987E1
1.046081067E1,7.570218197E0,-9.831202004E0,-3.315977046E0,1.284353690E1
1.047073367E1,3.317106729E0,-7.332979116E0,-3.873255290E0,8.931846747E0
1.048065667E1,-3.338061395E-1,-5.739347388E0,-2.796015733E0,6.392905361E0
1.049057967E1,-2.966766710E0,-2.604520590E0,-2.166456549E0,4.503195110E0
1.050050267E1,-4.972078089E0,9.996826726E-1,-1.880102611E0,5.408854943E0
1.051042567E1,-5.467533136E0,4.799132068E0,-2.451667941E0,7.676995694E0
1.052034967E1,-5.279913527E0,9.069381725E0,-4.090039641E0,1.126319653E1
1.053027267E1,-4.231384969E0,1.294258965E1,-7.580731491E0,1.558469556E1
1.054019567E1,-1.865411628E0,1.450230519E1,-9.927265910E0,1.767334787E1
1.055011867E1,9.952867359E-2,1.406737643E1,-6.492100389E0,1.549349389E1
1.056004167E1,1.443124544E0,1.353471262E1,-2.334382151E0,1.381015548E1
1.056996467E1,2.659011378E0,1.304825819E1,-5.185533035E-1,1.332652546E1
1.057988767E1,3.651629152E0,1.236030755E1,1.202248349E0,1.294438099E1
1.058981167E1,4.214203219E0,1.153140392E1,2.888004130E0,1.261242851E1
1.059973467E1,4.385913138E0,1.098886884E1,3.725718344E0,1.240453343E1
1.060965767E1,4.379106102E0,1.074498966E1,3.949893576E0,1.225695853E1
1.061958067E1,3.742972893E0,1.037833767E1,3.798897418E0,1.166839151E1
1.062950367E1,2.886979113E0,1.004231222E1,3.375668932E0,1.098079340E1
1.063942667E1,2.368055242E0,1.003732337E1,2.717584691E0,1.066493379E1
1.064934967E1,2.045105482E0,1.034410105E1,1.984963653E0,1.072953697E1
1.065927367E1,1.962224855E0,1.056129704E1,1.285020365E0,1.081862279E1
1.066919667E1,1.955092567E0,1.045117760E1,7.861394334E-1,1.066149687E1
1.067911967E1,1.836048665E0,1.009056929E1,2.124375308E-1,1.025844983E1
1.068904267E1,1.687669575E0,9.591855587E0,-6.591004872E-1,9.761472002E0
1.069896567E1,1.461454103E0,9.163265789E0,-1.760803624E0,9.444666083E0
1.070888867E1,1.289904690E0,8.965550378E0,-2.667919611E0,9.442602541E0
1.071881167E1,1.379076921E0,8.846817402E0,-3.170856171E0,9.498545160E0
1.072873567E1,1.701620154E0,8.719042876E0,-3.315539675E0,9.482089598E0
1.073865867E1,2.147955374E0,8.550193414E0,-3.264965937E0,9.401038362E0
1.074858167E1,2.789251090E0,8.417300820E0,-3.107879319E0,9.396264609E0
1.075850467E1,3.420032927E0,8.260841609E0,-2.792248957E0,9.366684768E0
1.076842767E1,3.689886607E0,8.106204389E0,-2.151359038E0,9.162650189E0
1.077835067E1,3.647539902E0,7.996817603E0,-1.492997639E0,8.915305999E0
1.078827367E1,3.411095165E0,7.945054541E0,-1.281265283E0,8.740772427E0
1.079819767E1,2.950554135E0,7.972095575E0,-2.122594246E0,8.761591402E0
1.080812067E1,1.552400672E0,7.641930789E0,-5.147558877E0,9.343790260E0
1.081804367E1,-9.860867268E-1,6.364352760E0,-1.039879591E1,1.223161107E1
1.082796667E1,-3.008297144E0,3.564155098E0,-1.221218354E1,1.307250856E1
1.083788967E1,-2.669465030E0,-3.840182269E-1,-8.243180971E-1,2.820108840E0
1.084781267E1,-1.841533792E0,-1.648333601E0,1.254711790E1,1.278821403E1
1.085773667E1,-3.617587540E0,-5.274950995E0,9.083146656E0,1.110925744E1
1.086765967E1,-7.151383309E0,-1.261903280E1,5.503367797E0,1.551352085E1
1.087758267E1,-1.331041226E1,-2.574896023E1,8.936188585E0,3.033202093E1
1.088750567E1,-1.808963514E1,-4.291561589E1,1.179273353E1,4.804220593E1
1.089742867E1,-1.060253863E1,-4.739012049E1,6.051337273E0,4.893726625E1
1.090735167E1,-2.169471081E0,-4.505013027E1,3.770427325E0,4.525966156E1
1.091727467E1,1.168298319E0,-4.154303113E1,2.223380363E0,4.161888726E1
1.092719867E1,4.001406376E0,-3.050899606E1,3.629787755E-1,3.077242024E1
1.093712167E1,6.813157552E0,-2.158466680E1,1.790733182E0,2.270514660E1
1.094704467E1,7.575317554E0,-1.636205891E1,1.519685501E0,1.809452546E1
1.095696767E1,5.600264347E0,-1.260212500E1,-1.174872855E0,1.384040611E1
1.096689067E1,1.222726614E0,-1.039442453E1,-3.312430125E0,1.097776457E1
1.097681367E1,-2.711278177E0,-8.531590497E0,-3.674350555E0,9.676772074E0
1.098673667E1,-5.089319440E0,-5.312724009E0,-3.839315711E0,8.298587463E0
1.099665967E1,-6.908882904E0,-1.337843526E0,-3.969112204E0,8.079377450E0
1.100658367E1,-7.339938473E0,2.991884009E0,-3.647332910E0,8.725199371E0
1.101650667E1,-5.999466623E0,7.372723811E0,-3.122254114E0,1.000495512E1
1.102642967E1,-4.397972143E0,1.094102926E1,-2.014392836E0,1.196269446E1
1.103635267E1,-8.712363017E-1,1.297055104E1,-4.840739100E0,1.387180601E1
1.104627567E1,2.063834552E0,1.321998741E1,-7.744715484E0,1.545988674E1
1.105619867E1,3.364735808E0,1.261372938E1,-5.572783018E0,1.419448930E1
1.106612167E1,4.375588709E0,1.223098000E1,-2.897153853E0,1.330925050E1
1.107604567E1,6.370604603E0,1.204245524E1,-2.408233069E0,1.383491662E1
1.108596867E1,8.236542335E0,1.122143132E1,-3.007593139E0,1.424102408E1
1.109589167E1,8.195425884E0,1.005486268E1,-2.274604896E0,1.316962780E1
1.110581467E1,6.199747792E0,9.096044444E0,3.349770445E-1,1.101304258E1
1.111573767E1,4.246031660E0,9.058784816E0,3.029111477E0,1.045303227E1
1.112566067E1,2.874808134E0,9.394699169E0,4.310331151E0,1.072864618E1
1.113558367E1,2.269836345E0,9.841705942E0,4.372166626E0,1.100577911E1
1.114550767E1,1.911153227E0,1.041133234E1,4.289814441E0,1.142150846E1
1.115543067E1,1.369647848E0,1.072983485E1,4.320910519E0,1.164798518E1
1.116535367E1,9.047933261E-1,1.084381696E1,4.212617746E0,1.166846886E1
1.117527667E1,7.936310323E-1,1.075700335E1,3.571215611E0,1.136206637E1
1.118519967E1,8.436361282E-1,1.026714000E1,2.748373205E0,1.066205613E1
1.119512267E1,8.502003586E-1,9.829693422E0,1.746576179E0,1.001979250E1
1.120504567E1,6.000133498E-1,9.314795798E0,-1.333306671E0,9.428846348E0
1.121496967E1,6.302023780E-1,8.922251161E0,-4.694597300E0,1.010163178E1
1.122489267E1,8.281886615E-1,8.960961483E0,-4.993584148E0,1.029177389E1
1.123481567E1,1.062864615E0,9.182693748E0,-4.481356362E0,1.027297914E1
1.124473867E1,1.593414943E0,9.283000394E0,-4.273183790E0,1.034278334E1
1.125466167E1,2.111627354E0,8.987970942E0,-4.297897047E0,1.018403215E1
1.126458467E1,2.780207786E0,8.499010981E0,-4.528125317E0,1.002330594E1
1.127450767E1,3.984229596E0,7.918284234E0,-5.015588390E0,1.018476497E1
1.128443167E1,5.166820191E0,7.426867858E0,-5.036707948E0,1.035484544E1
1.129435467E1,5.932041795E0,7.246797590E0,-4.229795111E0,1.027600904E1
1.130427767E1,6.190265363E0,7.247865876E0,-4.081216192E0,1.036857129E1
1.131420067E1,4.115713010E0,6.900465837E0,-5.433797625E0,9.699571072E0
1.132412367E1,-6.517280254E-1,5.571928740E0,-8.001016488E0,9.771765661E0
1.133404667E1,-4.226578558E0,2.836381402E0,-2.889345481E0,5.852977283E0
1.134396967E1,-6.069383535E0,-2.026188278E0,-8.873025499E-2,6.399275622E0
1.135389367E1,-5.880526071E0,-6.016743976E0,1.881839673E0,8.621085517E0
1.136381667E1,-5.003642528E0,-8.353036412E0,5.903200403E0,1.138672169E1
1.137374017E1,-6.010864016E0,-1.178402000E1,1.297099192E1,1.852674405E1
1.138366317E1,-1.056172389E1,-2.489916567E1,1.653617846E1,3.170116182E1
1.139358617E1,-9.907985301E0,-4.150573058E1,1.166204942E1,4.423683126E1
1.140350917E1,5.206970389E-1,-4.734387603E1,4.079713458E0,4.752218203E1
1.141343217E1,6.926016415E0,-4.664609270E1,-3.060163701E-1,4.715847022E1
1.142335617E1,6.070785697E0,-4.364325276E1,-1.245642875E0,4.408105689E1
1.143327917E1,5.457217478E0,-2.986119707E1,5.769295657E-1,3.036124439E1
1.144320217E1,3.994179510E0,-1.886459002E1,1.357114195E0,1.933049367E1
1.145312517E1,1.553365902E0,-1.299276110E1,-1.953262973E0,1.323026919E1
1.146304817E1,-1.463055510E0,-1.006632790E1,-5.178469014E0,1.141437822E1
1.147297117E1,-4.714314111E0,-8.470271916E0,-6.727478886E0,1.179954389E1
1.148289417E1,-6.647694798E0,-6.526121244E0,-6.146925800E0,1.116094984E1
1.149281817E1,-6.951008584E0,-3.402524024E0,-4.440694240E0,8.922637245E0
1.150274117E1,-6.435043259E0,4.381874174E-1,-3.029159424E0,7.125840075E0
1.151266417E1,-5.179893980E0,4.544489919E0,-1.736410795E0,7.106251664E0
1.152258717E1,-3.012978717E0,8.492098403E0,-1.247124560E0,9.096652994E0
1.153251017E1,-4.409223063E-1,1.138204030E1,-7.992524723E-1,1.141858390E1
1.154243317E1,2.831002548E0,1.221074980E1,-1.813465987E0,1.266513502E1
1.155235617E1,5.145290743E0,1.207345952E1,-3.809520639E0,1.366582925E1
1.156228017E1,6.757779157E0,1.202183094E1,-4.307619213E0,1.444809959E1
1.157220317E1,7.876612297E0,1.210160568E1,-3.703905891E0,1.490666965E1
1.158212617E1,9.036440851E0,1.200382386E1,-4.676813579E0,1.573599808E1
1.159204917E1,9.656501234E0,1.137483887E1,-6.287691085E0,1.619166559E1
1.160197217E1,7.454948527E0,9.777467262E0,-4.374844067E0,1.305045533E1
1.161189517E1,4.687083043E0,8.697316377E0,-3.141042753E-1,9.884873348E0
1.162181817E1,2.854412169E0,8.505530627E0,3.106281860E0,9.494245998E0
1.163174117E1,2.004862897E0,8.660172524E0,4.481952778E0,9.955197843E0
1.164166517E1,1.812571363E0,8.908668079E0,4.307054957E0,1.005984614E1
1.165158817E1,1.562470455E0,9.372744044E0,3.854138988E0,1.025397641E1
1.166151117E1,1.198145943E0,9.742786256E0,3.402329897E0,1.038909459E1
1.167143417E1,8.798742472E-1,1.008878823E1,3.141533554E0,1.060316272E1
1.168135717E1,7.179541746E-1,1.034564004E1,2.866433167E0,1.075937568E1
1.169128017E1,4.856526290E-1,1.027733637E1,2.205960923E0,1.052263109E1
1.170120317E1,4.736291456E-1,1.009268247E1,5.444085217E-1,1.011844576E1
1.171112717E1,8.417986406E-1,9.762076221E0,-2.349125905E0,1.007596892E1
1.172105017E1,1.381458346E0,9.329585161E0,-3.591178590E0,1.009188536E1
1.173097317E1,1.803107353E0,9.367012019E0,-3.240899967E0,1.007449963E1
1.174089617E1,2.195303934E0,9.600027071E0,-2.841372001E0,1.024954994E1
1.175081917E1,2.410310000E0,9.784282776E0,-2.572598301E0,1.040000220E1
1.176074217E1,2.502110409E0,9.620759543E0,-2.520664501E0,1.025540444E1
1.177066517E1,2.689947242E0,9.154485610E0,-2.755804431E0,9.931509503E0
1.178058917E1,2.890589184E0,8.648713151E0,-2.873239911E0,9.560923207E0
1.179051217E1,3.064493564E0,8.197913874E0,-3.062914231E0,9.272451470E0
1.180043517E1,2.988481222E0,7.752588176E0,-3.947713734E0,9.198809008E0
1.181035817E1,2.014670871E0,6.886318499E0,-6.954774191E0,9.992455416E0
1.182028117E1,2.048820511E-2,5.177502469E0,-1.268174770E1,1.369794424E1
1.183020417E1,-1.958171272E0,2.057035264E0,-1.107121869E1,1.142968556E1
1.184012717E1,-2.901341629E0,-1.707466493E0,2.735978862E0,4.338064707E0
1.185005117E1,-1.995965774E0,-2.876668718E0,1.275127928E1,1.322324565E1
1.185997417E1,-3.543583132E0,-6.926566054E0,9.409016662E0,1.220917250E1
1.186989717E1,-8.553814595E0,-1.595921732E1,7.821834412E0,1.972423523E1
1.187982017E1,-1.683346260E1,-3.258564405E1,1.127282367E1,3.837012138E1
1.188974317E1,-1.762658712E1,-4.396584599E1,1.005867507E1,4.842384879E1
1.189966617E1,-6.742692171E0,-3.957163068E1,4.553982289E0,4.039946296E1
1.190958917E1,1.516756046E-1,-3.937757329E1,3.874987235E0,3.956806553E1
1.191951217E1,3.225184405E0,-4.074561593E1,8.647306895E-1,4.088220629E1
1.192943617E1,6.455673405E0,-3.349884816E1,-8.479000640E-1,3.412575980E1
1.193935917E1,8.354627439E0,-2.332964201E1,2.356319150E0,2.489225253E1
1.194928217E1,6.901614815E0,-1.638490866E1,2.807357578E0,1.799941042E1
1.195920517E1,3.274905619E0,-1.164957497E1,9.077182496E-1,1.213513726E1
1.196912817E1,-5.900065711E-1,-8.710059214E0,-6.652043957E-1,8.755326159E0
1.197905117E1,-3.481084290E0,-6.009073598E0,-2.277308064E0,7.308422905E0
1.198897517E1,-5.714154074E0,-2.934457920E0,-3.865934576E0,7.497202826E0
1.199889817E1,-6.999817632E0,6.371792758E-1,-4.705169651E0,8.458254297E0
1.200882117E1,-6.481766020E0,4.788564979E0,-5.319764641E0,9.656269525E0
1.201874417E1,-5.224186639E0,8.622341623E0,-4.373670530E0,1.098935371E1
1.202866717E1,-3.055617783E0,1.134886203E1,-4.745790843E0,1.267501480E1
1.203859017E1,8.274006030E-1,1.268324225E1,-9.639772934E0,1.595225526E1
1.204851317E1,3.041740878E0,1.265303203E1,-1.040281060E1,1.666042843E1
1.205843617E1,3.612991043E0,1.177655428E1,-6.341690707E0,1.385488997E1
1.206836017E1,4.204562622E0,1.147707393E1,-3.398046227E0,1.268653975E1
1.207828317E1,5.835771482E0,1.121991338E1,-2.354415881E0,1.286413461E1
1.208820617E1,7.115687812E0,1.011818101E1,-1.696300650E0,1.248551304E1
1.209812917E1,6.486933205E0,8.692657900E0,4.790676409E-1,1.085689226E1
1.210805217E1,5.071495373E0,8.113588253E0,3.309738067E0,1.012446274E1
1.211797517E1,4.015756613E0,8.357356335E0,4.713601336E0,1.040142988E1
1.212789817E1,3.648456745E0,8.999444933E0,5.094842720E0,1.096625132E1
1.213782217E1,3.436578208E0,9.946270530E0,5.654755719E0,1.194632284E1
1.214774517E1,2.866247810E0,1.083130041E1,5.878043343E0,1.265242422E1
1.215766817E1,2.281150854E0,1.153157816E1,5.344849781E0,1.291310820E1
1.216759117E1,1.896401140E0,1.177588770E1,3.908836766E0,1.255176773E1
1.217751417E1,1.432376046E0,1.134322648E1,2.368718755E0,1.167610024E1
1.218743717E1,1.315283945E0,1.090678329E1,1.292626423E0,1.106159015E1
1.219736017E1,1.324798242E0,1.038674830E1,-3.481245819E-1,1.047667988E1
1.220728417E1,1.290375245E0,9.635794489E0,-4.406694435E0,1.067391960E1
1.221720717E1,1.063153029E0,9.128287745E0,-5.903714958E0,1.092290171E1
1.222713017E1,8.509334533E-1,9.086802920E0,-5.296129611E0,1.055192228E1
1.223705317E1,6.367762564E-1,9.050716828E0,-5.158506035E0,1.043700837E1
1.224697617E1,4.383637109E-1,8.845521074E0,-4.790911467E0,1.006917268E1
1.225689917E1,4.893015839E-1,8.595225745E0,-4.575067348E0,9.749285251E0
1.226682217E1,1.075208380E0,8.313165418E0,-5.087927803E0,9.805702507E0
1.227674517E1,2.339574332E0,8.060582659E0,-5.314481682E0,9.934299995E0
1.228666917E1,3.760248199E0,7.745227700E0,-4.879464040E0,9.896321941E0
1.229659217E1,4.690310706E0,7.523917605E0,-4.100438329E0,9.768415692E0
1.230651517E1,5.142726738E0,7.399582996E0,-3.559908850E0,9.688881145E0
1.231643817E1,4.817043843E0,7.151361090E0,-3.993702085E0,9.502396180E0
1.232636117E1,1.939448634E0,6.078369536E0,-6.589731349E0,9.172382268E0
1.233628417E1,-1.601951293E0,3.398781806E0,-9.617289805E0,1.032522295E1
1.234620717E1,-2.249373868E0,-6.942019075E-1,-8.006591662E-1,2.486494357E0
1.235613117E1,-1.225373722E0,-3.730853954E0,7.072662245E0,8.089707239E0
1.236605417E1,-1.448078159E0,-7.626667802E0,7.876797069E0,1.105924609E1
1.237597658E1,-4.945370346E0,-1.366388814E1,8.085941448E0,1.662952122E1
1.238589958E1,-1.094266999E1,-2.669252074E1,1.362691035E1,3.190494281E1
1.239582258E1,-1.494123930E1,-4.358835910E1,1.609291742E1,4.880745509E1
1.240574558E1,-7.208153341E0,-4.654894004E1,8.726088771E0,4.790517633E1
1.241566858E1,-8.420375725E-1,-4.369106428E1,1.893786850E0,4.374019380E1
1.242559258E1,-2.441993138E-1,-4.102280670E1,-1.755068675E0,4.106105903E1
1.243551558E1,3.403175696E0,-3.116971506E1,-8.867583203E-1,3.136748447E1
1.244543858E1,6.645548869E0,-2.179442280E1,1.378360053E0,2.282674005E1
1.245536158E1,6.021321176E0,-1.658604820E1,-1.390538780E-1,1.764575415E1
1.246528458E1,2.416774974E0,-1.310064340E1,-3.175140426E0,1.369485945E1
1.247520758E1,-2.264382939E0,-1.094588830E1,-5.229670157E0,1.234055715E1
1.248513058E1,-5.704407935E0,-8.356728344E0,-5.544591837E0,1.153766342E1
1.249505358E1,-7.365651019E0,-4.232601775E0,-5.038585489E0,9.876997339E0
1.250497758E1,-7.817433797E0,2.588749480E-1,-3.919970450E0,8.749025988E0
1.251490058E1,-6.735905308E0,4.738521584E0,-3.268655530E0,8.860593439E0
1.252482358E1,-5.187421101E0,8.921224975E0,-2.182530545E0,1.054803452E1
1.253474658E1,-2.272140587E0,1.170759456E1,-2.785348073E0,1.224698155E1
1.254466958E1,1.608068212E0,1.245596799E1,-7.161328254E0,1.445758086E1
1.255459258E1,3.767174519E0,1.212523778E1,-7.805842277E0,1.490450163E1
1.256451558E1,4.591525506E0,1.148850757E1,-4.257060678E0,1.308397792E1
1.257443958E1,5.514006221E0,1.147192604E1,-2.370856497E0,1.294721252E1
1.258436258E1,7.347593647E0,1.169666728E1,-3.023136792E0,1.413996160E1
1.259428558E1,8.638807967E0,1.125035399E1,-3.686712738E0,1.465576060E1
1.260420858E1,7.646040212E0,9.906502447E0,-2.100674788E0,1.268911172E1
1.261413158E1,5.337876391E0,8.855533261E0,1.594072609E0,1.046204861E1
1.262405458E1,3.666866996E0,8.813182463E0,4.422162659E0,1.052015310E1
1.263397758E1,2.764993916E0,9.131993710E0,5.117042259E0,1.082693964E1
1.264390058E1,2.435025888E0,9.887447541E0,5.125434768E0,1.140004612E1
1.265382458E1,1.915091473E0,1.055604391E1,5.240350682E0,1.193980375E1
1.266374758E1,1.333062989E0,1.105306893E1,5.139180987E0,1.226207857E1
1.267367058E1,1.085676065E0,1.135088400E1,4.227212981E0,1.216102749E1
1.268359358E1,6.979033412E-1,1.111059384E1,2.887523489E0,1.150087633E1
1.269351658E1,5.181567161E-1,1.067403136E1,1.801368098E0,1.083735941E1
1.270343958E1,5.104446772E-1,1.020049928E1,5.667443007E-1,1.022897543E1
1.271336258E1,6.951804391E-1,9.519020914E0,-3.306646644E0,1.010093793E1
1.272328658E1,1.118221814E0,8.840849733E0,-5.790563734E0,1.062740196E1
1.273320958E1,1.180652389E0,8.709744633E0,-5.169398228E0,1.019687549E1
1.274313258E1,1.434993991E0,8.839297882E0,-4.506464306E0,1.002499952E1
1.275305558E1,1.975747710E0,9.032500997E0,-4.113374709E0,1.011975814E1
1.276297858E1,2.449478159E0,8.869744334E0,-4.039583432E0,1.004940506E1
1.277290158E1,3.052563490E0,8.474250947E0,-4.132568779E0,9.910055382E0
1.278282458E1,3.654583458E0,8.046195000E0,-3.859446505E0,9.643265088E0
1.279274758E1,3.971289415E0,7.663295930E0,-3.022474887E0,9.145086034E0
1.280267158E1,4.120147246E0,7.456733682E0,-2.152627884E0,8.787052824E0
1.281259458E1,4.279099126E0,7.420490300E0,-2.529154658E0,8.931460626E0
1.282251758E1,2.966787760E0,7.128346449E0,-3.934151702E0,8.665604556E0
1.283244058E1,-5.075619268E-1,6.046717388E0,-4.300233010E0,7.437231623E0
1.284236358E1,-2.446569900E0,2.967827979E0,-3.837722930E0,5.433398980E0
1.285228658E1,-2.099387816E0,-2.555028588E-1,2.390973404E0,3.192094098E0
1.286220958E1,-1.808013166E0,-1.735620836E0,1.019912519E1,1.050254473E1
1.287213358E1,-4.749860797E0,-8.195369750E0,7.410568160E0,1.202671125E1
1.288205658E1,-1.201542707E1,-2.180211773E1,1.032210967E1,2.694900320E1
1.289197958E1,-1.893733991E1,-4.031034920E1,1.509830954E1,4.702665251E1
1.290190258E1,-1.331808615E1,-4.546161521E1,1.138538608E1,4.872121604E1
1.291182558E1,-5.186187923E0,-4.493569792E1,6.748865662E0,4.573467700E1
1.292174858E1,-1.309552650E0,-4.669708510E1,4.937594719E0,4.697565887E1
1.293167158E1,3.157571297E0,-4.068011308E1,-7.490563917E-1,4.080934871E1
1.294159558E1,7.250967239E0,-2.821946965E1,-1.826747353E0,2.919335540E1
1.295151858E1,7.606286162E0,-1.890350324E1,7.972818875E-1,2.039200045E1
1.296144158E1,4.332947597E0,-1.290500375E1,-4.397702587E-1,1.362009378E1
1.297136458E1,2.130666912E-2,-9.158953468E0,-2.267909834E0,9.435586766E0
1.298128758E1,-3.385196970E0,-6.710942960E0,-3.054710587E0,8.113419175E0
1.299121058E1,-5.435189847E0,-3.905430179E0,-3.782002473E0,7.687471383E0
1.300113358E1,-6.425414649E0,-7.303710294E-1,-4.827591051E0,8.070008092E0
1.301105658E1,-7.170145270E0,2.947558022E0,-5.495546561E0,9.502637186E0
1.302098058E1,-5.871116146E0,7.092783684E0,-5.341367179E0,1.064461312E1
1.303090358E1,-3.384567810E0,1.068999309E1,-5.976515717E0,1.270629732E1
1.304082658E1,7.097853220E-1,1.268964144E1,-9.265057043E0,1.572806654E1
1.305074958E1,3.753009639E0,1.208579247E1,-8.475231525E0,1.523092283E1
1.306067258E1,4.609922016E0,1.073417582E1,-3.638255693E0,1.223563713E1
1.307059558E1,6.056560006E0,1.049504809E1,-1.072150140E0,1.216459862E1
1.308051858E1,8.891601811E0,1.042138604E1,-1.923710561E0,1.383352927E1
1.309044158E1,1.109050514E1,1.018579236E1,-3.736167904E0,1.551478717E1
1.310036558E1,1.021853092E1,9.716539274E0,-1.674154905E0,1.419972902E1
1.311028858E1,7.448038287E0,9.550737382E0,1.995184001E0,1.227479605E1
1.312021158E1,5.410645575E0,9.917802776E0,4.226860979E0,1.206251430E1
1.313013458E1,4.401619052E0,1.044158583E1,5.240356529E0,1.248448243E1
1.314005758E1,3.666711168E0,1.108124082E1,5.879108706E0,1.306914641E1
1.314998058E1,2.983955770E0,1.149916939E1,6.235526905E0,1.341702964E1
1.315990358E1,2.265309869E0,1.139490301E1,6.240198830E0,1.318770354E1
1.316982758E1,1.746227247E0,1.107005626E1,5.567763183E0,1.251381006E1
1.317975058E1,1.403611984E0,1.045837202E1,3.835055430E0,1.122743613E1
1.318967358E1,1.193150082E0,9.719561700E0,2.372636390E0,1.007585680E1
1.319959658E1,8.213994594E-1,9.223437731E0,8.758345520E-1,9.301268022E0
1.320951958E1,1.487182291E-1,9.064846040E0,-1.498025075E0,9.188995047E0
1.321944258E1,-4.320506184E-1,9.241900315E0,-3.720010293E0,9.971853676E0
1.322936558E1,-6.763643914E-1,9.532536753E0,-4.637774059E0,1.062241375E1
1.323928858E1,-8.251719368E-1,9.839046628E0,-4.603840327E0,1.089417702E1
1.324921258E1,-6.974270855E-1,1.008077754E1,-4.100980951E0,1.090534388E1
1.325913558E1,-5.282422860E-1,9.969851182E0,-3.629226422E0,1.062300602E1
1.326905858E1,1.453632429E-2,9.391291412E0,-3.609806650E0,1.006117636E1
1.327898158E1,1.079829434E0,8.725370148E0,-3.353860572E0,9.409914801E0
1.328890458E1,2.108008805E0,8.185296752E0,-2.353442320E0,8.773908752E0
1.329882758E1,2.671180603E0,7.880817615E0,-1.196074859E0,8.406728684E0
1.330875058E1,2.936224948E0,7.784326862E0,-7.438617253E-1,8.352873273E0
1.331867458E1,2.929200396E0,7.497032107E0,-2.047280939E0,8.305243200E0
1.332859758E1,1.271946429E0,6.593998062E0,-6.437794958E0,9.302895360E0
1.333852058E1,-9.735187215E-1,4.613481216E0,-1.292472290E1,1.375792171E1
1.334844358E1,-1.259347726E0,2.551444244E-1,-7.740600214E0,7.846524520E0
1.335836658E1,-3.277770755E-1,-1.840373704E0,9.290911092E0,9.477100933E0
1.336828958E1,-1.161922369E0,-3.650766395E0,1.176113985E1,1.236942074E1
1.337821283E1,-4.418588841E0,-1.016726605E1,8.453403869E0,1.394120738E1
1.338813583E1,-1.027314509E1,-2.249271366E1,1.094086554E1,2.704001140E1
1.339805983E1,-1.586592032E1,-4.108719624E1,1.653083645E1,4.704416729E1
1.340798283E1,-9.276622835E0,-4.909445755E1,1.498044254E1,5.216066671E1
1.341790583E1,-1.550874988E0,-4.871886984E1,6.597854301E0,4.918805925E1
1.342782883E1,1.096888540E0,-4.821353007E1,-3.508398389E0,4.835345392E1
1.343775183E1,3.957930574E0,-3.856044361E1,-7.422179561E0,3.946722407E1
1.344767483E1,4.916859908E0,-2.517208329E1,-1.339646223E0,2.568275570E1
1.345759783E1,3.733130860E0,-1.701815743E1,9.897020602E-1,1.745088704E1
1.346752083E1,8.060225978E-2,-1.373683216E1,-1.238959508E0,1.379282694E1
1.347744483E1,-3.895664159E0,-1.197301839E1,-3.131885648E0,1.297451642E1
1.348736783E1,-6.886680441E0,-8.685657029E0,-3.937288148E0,1.176304567E1
1.349729083E1,-7.761074240E0,-4.646489334E0,-4.226917112E0,9.984536281E0
1.350721383E1,-7.371101208E0,-3.734569860E-1,-4.498803284E0,8.643600762E0
1.351713683E1,-7.036692513E0,3.879320607E0,-4.056102986E0,9.000896696E0
1.352705983E1,-4.897458846E0,8.058482924E0,-3.801202390E0,1.016727052E1
1.353698283E1,-1.633545554E0,1.162045467E1,-5.535584201E0,1.297482679E1
1.354690683E1,2.623153035E0,1.290783380E1,-7.463569661E0,1.513928590E1
1.355682983E1,5.083423693E0,1.211757793E1,-5.266282498E0,1.415664588E1
1.356675283E1,6.393521011E0,1.146581687E1,-1.975115772E0,1.327566005E1
1.357667583E1,9.025674373E0,1.158148766E1,-1.425873942E0,1.475217851E1
1.358659883E1,1.231972319E1,1.133083039E1,-3.311875809E0,1.706258533E1
1.359652183E1,1.315382383E1,1.016840742E1,-4.153552097E0,1.713684877E1
1.360644483E1,1.052944843E1,8.943817447E0,-2.353735850E0,1.401432222E1
1.361636783E1,7.115886033E0,8.807936926E0,1.080575978E0,1.137467500E1
1.362629183E1,4.483409320E0,9.361477629E0,4.374650524E0,1.126391538E1
1.363621483E1,3.051191733E0,9.811144885E0,6.775445935E0,1.230751813E1
1.364613783E1,2.195314313E0,1.021752053E1,7.610181577E0,1.292795399E1
1.365606083E1,1.388194046E0,1.053810465E1,7.413851956E0,1.295931839E1
1.366598383E1,7.419616726E-1,1.052963086E1,7.161527059E0,1.275582624E1
1.367590683E1,2.881067871E-1,1.057175888E1,6.445513283E0,1.238506088E1
1.368582983E1,1.919814853E-1,1.076187408E1,5.056111348E0,1.189197430E1
1.369575383E1,2.671082662E-1,1.084188621E1,3.869218957E0,1.151471662E1
1.370567683E1,2.277984586E-1,1.064969525E1,2.921772970E0,1.104557189E1
1.371559983E1,3.621136799E-2,1.038774350E1,1.929824409E0,1.056554535E1
1.372552283E1,-4.649115318E-1,1.036670639E1,-2.078186982E0,1.058317557E1
1.373544583E1,-6.513035175E-1,1.057609869E1,-6.989527702E0,1.269376056E1
1.374536883E1,-3.727694996E-1,1.049577782E1,-6.379286549E0,1.228802694E1
1.375529183E1,-8.756541654E-2,1.019300666E1,-4.672053945E0,1.121307899E1
1.376521483E1,2.862524888E-1,9.575583955E0,-3.160517124E0,1.008774589E1
1.377513883E1,5.832064055E-1,8.840444521E0,-2.923563387E0,9.329566545E0
1.378506183E1,1.124278067E0,8.549276571E0,-3.650921931E0,9.363939449E0
1.379498483E1,1.829575797E0,8.521399970E0,-3.970853505E0,9.577540530E0
1.380490783E1,2.253006158E0,8.527689820E0,-3.546771326E0,9.506688028E0
1.381483083E1,2.265734670E0,8.568004618E0,-2.648784013E0,9.249881808E0
1.382475383E1,2.171508543E0,8.577406940E0,-2.000442402E0,9.071335568E0
1.383467683E1,1.841986951E0,8.307081975E0,-2.766825264E0,8.947393414E0
1.384459983E1,6.130280824E-1,7.097816967E0,-6.143702230E0,9.407437814E0
1.385452383E1,-6.163883311E-1,4.373550078E0,-1.537089972E1,1.599288695E1
1.386444683E1,2.525624402E-1,-5.241210222E-1,-8.355699234E0,8.375929818E0
1.387436983E1,1.347827647E0,-3.606364979E0,1.269017471E1,1.326133635E1
1.388429283E1,1.440752183E0,-6.054718133E0,1.606711132E1,1.723042207E1
1.389421583E1,-1.400494395E0,-1.257894546E1,1.193468872E1,1.739620787E1
1.390413883E1,-5.914974942E0,-2.239670472E1,1.326116935E1,2.669190745E1
1.391406183E1,-8.141740258E0,-3.892632261E1,1.774972363E1,4.354996229E1
1.392398483E1,-2.253529338E-1,-4.950246222E1,1.069736409E1,5.064561332E1
1.393390883E1,6.391638207E0,-5.086741754E1,-7.894179672E0,5.187162306E1
1.394383183E1,1.104572878E0,-4.741994129E1,-1.567583670E1,4.995600834E1
1.395375483E1,-5.886859190E0,-3.428989224E1,-6.618935267E0,3.541556332E1
1.396367783E1,-5.845694207E0,-2.111993945E1,1.263924780E0,2.195043255E1
1.397360083E1,-3.607247908E0,-1.616251332E1,1.929354293E0,1.667217689E1
1.398352383E1,-3.082696823E0,-1.399772790E1,1.356242375E0,1.439718026E1
1.399344683E1,-4.060197499E0,-1.205977586E1,-4.349743724E-3,1.272491322E1
1.400337083E1,-5.425849505E0,-9.247392020E0,-9.611232090E-1,1.076465791E1
1.401329383E1,-5.755873373E0,-5.372273222E0,-1.032320076E0,7.940848985E0
1.402321683E1,-5.096838959E0,-1.314369879E0,-5.135807582E-1,5.288582112E0
1.403313983E1,-3.781523586E0,2.686680402E0,-3.885545333E-1,4.655013087E0
1.404306283E1,-2.159336395E0,6.768329873E0,-9.948125267E-1,7.173749013E0
1.405298583E1,-5.091577050E-1,9.873369784E0,-1.050673390E0,9.942162091E0
1.406290883E1,2.352947353E0,1.168371219E1,-3.219178730E0,1.234538794E1
1.407283183E1,5.021030393E0,1.260848911E1,-7.385642649E0,1.545096958E1
1.408275583E1,6.987940183E0,1.332256161E1,-8.578510895E0,1.731799079E1
1.409267883E1,8.802986673E0,1.365868412E1,-7.544881042E0,1.791584372E1
1.410260183E1,1.079617034E1,1.341448568E1,-7.335913249E0,1.871687323E1
1.411252483E1,1.119756065E1,1.145538660E1,-7.064630510E0,1.750771975E1
1.412244783E1,7.953264617E0,8.240142465E0,-5.575766852E0,1.273748570E1
1.413237083E1,5.370334285E0,6.880045606E0,-2.542860532E0,9.090745710E0
1.414229383E1,4.069137014E0,7.291430556E0,1.282425370E0,8.447925806E0
1.415221683E1,3.032809256E0,8.436159845E0,4.240553988E0,9.917107595E0
1.416214083E1,2.530928704E0,9.148343110E0,5.922463471E0,1.118808989E1
1.417206383E1,2.304458732E0,9.540850325E0,6.720782654E0,1.189568302E1
1.418198683E1,2.098851919E0,1.003718538E1,7.406744081E0,1.264951096E1
1.419190983E1,1.971450299E0,1.045687045E1,7.970501039E0,1.329517366E1
1.420183283E1,1.727638217E0,1.090452159E1,7.403873098E0,1.329325625E1
1.421175583E1,1.578649116E0,1.123945595E1,5.108532221E0,1.244646956E1
1.422167883E1,1.657517822E0,1.105493536E1,3.142595408E0,1.161184168E1
1.423160183E1,1.534521933E0,1.059636163E1,2.234300623E0,1.093753796E1
1.424152583E1,1.324335581E0,1.007644475E1,1.746902454E0,1.031214196E1
1.425144883E1,1.189552728E0,9.643261968E0,1.239661174E0,9.795115972E0
1.426137183E1,1.461955356E0,9.310554228E0,-1.219908110E0,9.503257825E0
1.427129483E1,2.184244072E0,9.263098226E0,-4.260116433E0,1.042710424E1
1.428121783E1,2.266397451E0,9.366906184E0,-3.932479398E0,1.040864463E1
1.429114083E1,2.065990128E0,9.255628992E0,-3.098607974E0,9.976790798E0
1.430106383E1,1.862301640E0,8.960324721E0,-2.284594864E0,9.432653932E0
1.431098683E1,1.592110576E0,8.556676222E0,-2.011591873E0,8.932974080E0
1.432091083E1,1.542171846E0,8.227128902E0,-2.508644965E0,8.738263187E0
1.433083383E1,1.517190786E0,7.883544756E0,-3.877319105E0,8.915478072E0
1.434075683E1,1.001128104E0,7.247184091E0,-7.248271673E0,1.029861044E1
1.435067983E1,-2.315665506E-1,6.101686478E0,-1.301197037E1,1.437343292E1
1.436060283E1,-1.075994392E0,3.652549796E0,-1.316311856E1,1.370279439E1
1.437052567E1,-1.037116255E-1,-3.372282225E-1,-5.799290411E-1,6.788200557E-1
1.438044867E1,7.214578262E-1,-1.780965409E0,1.080131589E1,1.097090535E1
1.439037267E1,-9.396272363E-1,-5.619795801E0,7.591125501E0,9.491585250E0
1.440029567E1,-4.277326543E0,-1.282045184E1,4.038749034E0,1.410570812E1
1.441021867E1,-8.617991880E0,-2.272537671E1,7.540356467E0,2.544738702E1
1.442014167E1,-1.294462682E1,-3.962654305E1,1.389304988E1,4.394135994E1
1.443006467E1,-6.727892869E0,-4.928696660E1,1.276993775E1,5.135699494E1
1.443998767E1,1.884705393E0,-4.914210534E1,3.586421295E0,4.930883338E1
1.444991067E1,5.021723288E0,-4.718701160E1,-6.938493204E0,4.795804893E1
1.445983367E1,3.301565999E0,-3.439728454E1,-6.159212555E0,3.509999175E1
1.446975767E1,7.539525577E-1,-2.192947711E1,2.457088895E0,2.207957645E1
1.447968067E1,-2.339403740E-1,-1.589100605E1,4.448690307E0,1.650362526E1
1.448960367E1,-1.263156602E0,-1.198433743E1,3.075932472E0,1.243709245E1
1.449952667E1,-2.995748434E0,-9.709388130E0,1.179248911E0,1.022924017E1
1.450944967E1,-4.685668602E0,-7.171421717E0,-7.452299738E-1,8.598845702E0
1.451937267E1,-5.567139870E0,-3.787352675E0,-2.600508231E0,7.218014247E0
1.452929567E1,-5.704973946E0,-6.341398931E-1,-2.905672077E0,6.433645261E0
1.453921867E1,-5.174346142E0,2.589560489E0,-3.104133593E0,6.566226229E0
1.454914267E1,-4.084279549E0,6.451797870E0,-2.824042023E0,8.141391069E0
1.455906567E1,-2.324607653E0,9.935130415E0,-1.848180322E0,1.036949312E1
1.456898867E1,6.078867719E-1,1.270535408E1,-4.512618501E0,1.349663937E1
1.457891167E1,3.704759877E0,1.439419134E1,-1.078248552E1,1.836246128E1
1.458883467E1,5.059247210E0,1.402637575E1,-1.021969335E1,1.807698347E1
1.459875767E1,5.145252736E0,1.311126194E1,-5.291514403E0,1.504589446E1
1.460868067E1,6.326253473E0,1.275645875E1,-2.756172221E0,1.450328266E1
1.461860367E1,8.255185597E0,1.135807022E1,-2.897508194E0,1.433699418E1
1.462852667E1,7.852310684E0,8.930128530E0,-3.345030692E0,1.235294333E1
1.463845067E1,6.701634777E0,7.683838368E0,-2.242650447E0,1.043948092E1
1.464837367E1,5.401211092E0,7.623137253E0,7.376262546E-1,9.371733849E0
1.465829667E1,3.747066236E0,8.186679618E0,3.508279105E0,9.662828304E0
1.466821967E1,2.531101196E0,9.013280615E0,4.823781005E0,1.053159835E1
1.467814267E1,2.062616431E0,9.813110719E0,5.210920476E0,1.130067346E1
1.468806567E1,1.709171395E0,1.039448768E1,5.211271309E0,1.175261629E1
1.469798867E1,1.344174453E0,1.068222682E1,4.952247841E0,1.185080307E1
1.470791167E1,1.184494741E0,1.083374104E1,4.304498554E0,1.171757998E1
1.471783567E1,1.240235517E0,1.097999277E1,3.213108151E0,1.150749709E1
1.472775867E1,1.388531431E0,1.094898732E1,1.720107003E0,1.116991992E1
1.473768167E1,1.614825985E0,1.058659912E1,1.933218133E-1,1.071079442E1
1.474760467E1,1.700572625E0,1.020656401E1,-4.175800753E-1,1.035568778E1
1.475752767E1,1.715949779E0,1.008748547E1,-3.453798258E-1,1.023821927E1
1.476745067E1,1.658949805E0,1.020068522E1,-4.546163392E-1,1.034469765E1
1.477737367E1,1.532147964E0,1.035092124E1,-8.951443970E-1,1.050192037E1
1.478729767E1,1.274599164E0,1.030454814E1,-1.425242443E0,1.048044043E1
1.479722067E1,1.006272923E0,9.831744626E0,-1.991132466E0,1.008168617E1
1.480714367E1,9.609175332E-1,9.130738313E0,-2.441463965E0,9.500236362E0
1.481706667E1,1.228721472E0,8.614716269E0,-2.730792382E0,9.120324550E0
1.482698967E1,1.556520182E0,8.363641507E0,-2.901637498E0,8.988478987E0
1.483691267E1,1.680724690E0,8.142473499E0,-3.573810021E0,9.049686637E0
1.484683567E1,1.189632689E0,7.682307567E0,-6.243582029E0,9.970726756E0
1.485675867E1,-7.294240728E-2,6.553558134E0,-1.279224137E1,1.437344371E1
1.486668167E1,-1.130280453E0,3.792300004E0,-1.671814966E1,1.718009317E1
1.487660567E1,-9.024276888E-1,-7.761243224E-1,-2.921115743E0,3.154308463E0
1.488652867E1,-9.702774636E-1,-2.701231198E0,1.131014528E1,1.166865350E1
1.489645167E1,-2.635729227E0,-5.436982019E0,1.017736770E1,1.183582085E1
1.490637467E1,-5.978626562E0,-1.183707998E1,6.614715332E0,1.481940946E1
1.491629767E1,-1.110157743E1,-2.274615070E1,1.019618637E1,2.728726094E1
1.492622067E1,-1.567979994E1,-4.084998171E1,1.573578586E1,4.649937729E1
1.493614367E1,-8.324320736E0,-5.011275717E1,1.098082775E1,5.197269788E1
1.494606767E1,1.326833219E0,-4.742279941E1,-3.928732502E-1,4.744298409E1
1.495599067E1,2.212918817E0,-4.297206725E1,-6.798027881E0,4.356269914E1
1.496591367E1,1.599641351E0,-3.362176599E1,-3.683368131E0,3.386073244E1
1.497583667E1,3.684755383E0,-2.286273248E1,2.562951565E0,2.329915620E1
1.498575967E1,3.177900896E0,-1.647994228E1,2.800754902E0,1.701563339E1
1.499568267E1,-3.350782013E-1,-1.310187015E1,3.655690920E-1,1.311125164E1
1.500560567E1,-3.869736435E0,-1.086026752E1,-1.456128606E0,1.162069624E1
1.501552867E1,-6.612217401E0,-8.002139738E0,-2.024918847E0,1.057619760E1
1.502545267E1,-7.688766986E0,-4.127574087E0,-2.234173154E0,9.008081666E0
1.503537567E1,-7.525301641E0,-2.311299098E-1,-2.037024922E0,7.799554882E0
1.504529867E1,-6.372208495E0,3.753424791E0,-1.222300206E0,7.495815936E0
1.505522167E1,-4.106357758E0,7.682401707E0,-6.477639055E-1,8.735048260E0
1.506514467E1,-1.484406325E0,1.080427224E1,-4.048840159E-1,1.091328053E1
1.507506767E1,1.918295747E0,1.260985385E1,-3.228521996E0,1.315718917E1
1.508499067E1,4.855712065E0,1.351008883E1,-9.149697325E0,1.702402423E1
1.509491367E1,6.561917898E0,1.353367065E1,-9.822605428E0,1.796392455E1
1.510483767E1,7.855768143E0,1.273817801E1,-5.636539888E0,1.599202470E1
1.511476067E1,1.013467133E1,1.172603434E1,-3.803737158E0,1.595869232E1
1.512468367E1,1.229337915E1,9.878875523E0,-4.283011791E0,1.634207889E1
1.513460667E1,1.155770586E1,7.571204622E0,-4.543684173E0,1.454471623E1
1.514452967E1,8.551049446E0,6.628079728E0,-2.853662263E0,1.118906948E1
1.515445267E1,5.928835766E0,7.071061862E0,1.875587976E-1,9.229636380E0
1.516437567E1,3.804076881E0,7.900675344E0,2.794273263E0,9.203240455E0
1.517429867E1,2.664794274E0,8.983075653E0,4.554769324E0,1.041838281E1
1.518422167E1,2.549780419E0,9.914464016E0,5.483843359E0,1.161337655E1
1.519414567E1,2.032332824E0,1.041019681E1,5.722792751E0,1.205209240E1
1.520406867E1,1.510308906E0,1.058773582E1,5.343126022E0,1.195534100E1
1.521399167E1,1.231624468E0,1.064443159E1,4.476884412E0,1.161306664E1
1.522391467E1,1.144136674E0,1.073669714E1,3.210906090E0,1.126479614E1
1.523383767E1,1.190084971E0,1.077823810E1,1.661347164E0,1.097026860E1
1.524376067E1,1.207841503E0,1.070105485E1,9.710997283E-2,1.076944225E1
1.525368367E1,1.200590956E0,1.050426564E1,-5.564292276E-1,1.058728619E1
1.526360667E1,1.219507137E0,1.040460804E1,-2.350393581E-1,1.047846886E1
1.527353067E1,1.246135211E0,1.043746471E1,-4.986152848E-2,1.051170817E1
1.528345367E1,1.117893493E0,1.054991953E1,-4.182606912E-1,1.061722327E1
1.529337667E1,7.574693656E-1,1.044075319E1,-1.236154014E0,1.054092803E1
1.530329967E1,3.976084717E-1,9.963589983E0,-2.004119132E0,1.017092480E1
1.531322267E1,3.069522169E-1,9.378839766E0,-2.168201358E0,9.631092989E0
1.532314567E1,2.903959720E-1,8.932372107E0,-1.749578140E0,9.106735142E0
1.533306867E1,2.141873100E-1,8.585935689E0,-1.330770149E0,8.691094123E0
1.534299167E1,1.075456448E-1,8.255871475E0,-1.529432809E0,8.397031892E0
1.535291567E1,-1.942465505E-1,7.628734208E0,-3.959527448E0,8.597277182E0
1.536283867E1,-9.708309026E-1,6.549113665E0,-1.148190607E1,1.325396429E1
1.537276146E1,-1.108435037E0,3.292979947E0,-2.299652146E1,2.325752232E1
1.538268446E1,2.509142563E-1,-2.019471581E0,-7.718094281E0,7.981867122E0
1.539260746E1,5.504802704E-1,-2.886769198E0,1.412620643E1,1.442865805E1
1.540253046E1,-1.387882536E0,-5.967561291E0,1.197798384E1,1.345399950E1
1.541245346E1,-5.920111136E0,-1.427494089E1,7.503591514E0,1.717921823E1
1.542237646E1,-1.217383165E1,-2.792567981E1,9.287726698E0,3.184819677E1
1.543230046E1,-1.596427049E1,-4.458416800E1,1.388050175E1,4.934849843E1
1.544222346E1,-6.996801639E0,-4.869355373E1,9.989401932E0,5.019766488E1
1.545214646E1,2.145625405E0,-4.634953128E1,2.091055534E0,4.644626219E1
1.546206946E1,3.959571303E0,-4.227354484E1,-4.579566196E0,4.270483842E1
1.547199246E1,5.212785153E0,-3.165392532E1,-2.510480990E0,3.217835658E1
1.548191546E1,5.781771276E0,-2.120836105E1,3.682618518E0,2.228867732E1
1.549183846E1,3.689854447E0,-1.574514959E1,4.576225682E0,1.680674278E1
1.550176146E1,5.560395107E-2,-1.273156598E1,2.235626771E0,1.292648023E1
1.551168546E1,-3.298269046E0,-1.029162580E1,-7.875053430E-1,1.083588044E1
1.552160846E1,-5.772436781E0,-7.584405881E0,-3.095246994E0,1.002121714E1
1.553153146E1,-6.914544178E0,-4.367150885E0,-4.643876213E0,9.404707030E0
1.554145446E1,-6.849206221E0,-9.568705291E-1,-5.128089404E0,8.609560267E0
1.555137746E1,-6.433840486E0,2.706852127E0,-4.253629532E0,8.174026917E0
1.556130046E1,-4.700654139E0,6.439794706E0,-2.814671860E0,8.455145349E0
1.557122346E1,-2.509177061E0,9.909914882E0,-2.716162648E0,1.057733057E1
1.558114646E1,5.685179074E-1,1.306991394E1,-6.406701804E0,1.456680099E1
1.559107046E1,4.290496519E0,1.427798495E1,-1.114819144E1,1.861589071E1
1.560099346E1,6.034093249E0,1.346293805E1,-8.795637892E0,1.717626933E1
1.561091646E1,7.128376855E0,1.256498114E1,-4.109900293E0,1.501944700E1
1.562083946E1,9.680894648E0,1.128714818E1,-2.395582033E0,1.506181425E1
1.563076246E1,1.088272200E1,9.413771617E0,-2.589693221E0,1.462050769E1
1.564068546E1,9.020834048E0,8.013717225E0,-2.630642442E0,1.234971216E1
1.565060846E1,6.450422021E0,7.867254413E0,-2.279110175E-1,1.017612793E1
1.566053146E1,4.487702930E0,8.528086846E0,3.556917415E0,1.027226384E1
1.567045446E1,3.543849180E0,9.163333032E0,6.183445755E0,1.160864078E1
1.568037846E1,3.199876487E0,9.675678347E0,6.742818471E0,1.221980204E1
1.569030146E1,2.646143995E0,1.014609679E1,6.513783034E0,1.234401586E1
1.570022446E1,1.802783124E0,1.044509533E1,6.096929183E0,1.222794295E1
1.571014746E1,1.328276312E0,1.064217339E1,4.920666445E0,1.179970893E1
1.572007046E1,1.193328568E0,1.078217795E1,3.168153588E0,1.130117656E1
1.572999346E1,8.942417331E-1,1.091371341E1,1.149256788E0,1.101043141E1
1.573991646E1,6.420668171E-1,1.111293272E1,-1.335742621E0,1.121132159E1
1.574983946E1,9.356340265E-1,1.099152231E1,-2.035112883E0,1.121742654E1
1.575976346E1,1.456137815E0,1.084415493E1,-1.495881486E0,1.104326469E1
1.576968646E1,1.665602037E0,1.082026789E1,-1.269389003E0,1.102106055E1
1.577960946E1,1.518513865E0,1.062043578E1,-1.462123171E0,1.082761953E1
1.578953246E1,8.028320646E-1,9.886703775E0,-2.214972652E0,1.016354046E1
1.579945546E1,4.231124184E-1,8.976646639E0,-3.434545716E0,9.620567201E0
1.580937846E1,9.037010662E-1,8.447192956E0,-4.249768031E0,9.499066942E0
1.581930146E1,1.545639391E0,8.261958427E0,-4.252179422E0,9.419659655E0
1.582922446E1,2.061350947E0,8.151705083E0,-3.483490419E0,9.101327869E0
1.583914846E1,2.454139559E0,7.961129122E0,-2.379158374E0,8.663877448E0
1.584907146E1,2.711094574E0,7.763734723E0,-1.673615207E0,8.392055678E0
1.585899446E1,2.513082417E0,7.536532388E0,-2.338738911E0,8.281582177E0
1.586891746E1,1.106225228E0,6.843355497E0,-6.784759380E0,9.699907657E0
1.587884046E1,-1.082459366E0,5.337948897E0,-1.418502708E1,1.519474942E1
1.588876346E1,-1.592683457E0,1.303557792E0,-1.232643463E1,1.249707542E1
1.589868646E1,-6.235827452E-1,-2.590224148E0,3.050348564E0,4.050029993E0
1.590860946E1,-9.037777378E-1,-4.220330808E0,1.239122762E1,1.312137677E1
1.591853346E1,-4.216188056E0,-1.018145490E1,7.549907309E0,1.335811985E1
1.592845646E1,-9.094946921E0,-1.942085553E1,8.421454682E0,2.303928358E1
1.593837946E1,-1.514198591E1,-3.605835455E1,1.370672952E1,4.144103165E1
1.594830246E1,-1.226388813E1,-4.710104818E1,1.488705081E1,5.089730812E1
1.595822546E1,-1.879360892E0,-4.731790971E1,6.882364612E0,4.785272740E1
1.596814846E1,2.355226013E0,-4.562232944E1,-2.024419495E0,4.572791606E1
1.597807146E1,2.828610452E0,-3.817529220E1,-5.831571427E0,3.872158567E1
1.598799446E1,5.118102944E0,-2.674088891E1,6.923454165E-2,2.722636426E1
1.599791746E1,5.465680738E0,-1.889550074E1,2.657083551E0,1.984877093E1
1.600784146E1,1.843201126E0,-1.476881310E1,6.725993693E-1,1.489857780E1
1.601776446E1,-2.374846199E0,-1.253334654E1,-1.011302186E0,1.279638238E1
1.602768746E1,-5.481963480E0,-9.891652858E0,-2.305446035E0,1.154174169E1
1.603761046E1,-7.102672495E0,-6.073505822E0,-3.474631303E0,9.970380746E0
1.604753346E1,-7.428246047E0,-1.851230814E0,-3.985451664E0,8.630742716E0
1.605745646E1,-7.152021825E0,2.479818192E0,-3.144591063E0,8.196912065E0
1.606737946E1,-5.240821967E0,6.915258708E0,-1.951973662E0,8.893661736E0
1.607730246E1,-2.784993732E0,1.053794210E1,-1.641017418E0,1.102258372E1
1.608722646E1,6.167029113E-1,1.268628046E1,-3.643016496E0,1.321338729E1
1.609714946E1,3.634694154E0,1.308447351E1,-7.631437960E0,1.557733270E1
1.610707246E1,4.869499507E0,1.287722831E1,-7.822437844E0,1.583431616E1
1.611699546E1,6.147237457E0,1.250478172E1,-5.286458901E0,1.490317892E1
1.612691846E1,9.009479924E0,1.203318390E1,-5.305894461E0,1.594116555E1
1.613684146E1,1.179528174E1,1.044448605E1,-7.118003894E0,1.728820232E1
1.614676446E1,1.074081709E1,8.088500775E0,-6.042844777E0,1.474126757E1
1.615668746E1,7.684822454E0,6.969015670E0,-2.533640642E0,1.067909221E1
1.616661046E1,4.670286916E0,7.521230224E0,2.006352768E0,9.077771500E0
1.617653446E1,2.251822974E0,8.570280354E0,5.402765282E0,1.037835655E1
1.618645746E1,1.710626767E0,9.471268458E0,6.417056054E0,1.156761767E1
1.619638046E1,1.956802001E0,1.045588695E1,6.286163793E0,1.235599050E1
1.620630346E1,1.854816035E0,1.125579774E1,6.265194508E0,1.301483721E1
1.621622646E1,1.480763802E0,1.169067155E1,5.900858594E0,1.317894513E1
1.622614946E1,1.300486542E0,1.193517638E1,4.630921122E0,1.286798861E1
1.623607246E1,1.337126657E0,1.192237097E1,3.003679597E0,1.236741398E1
1.624599546E1,1.359702757E0,1.153782299E1,1.881008345E0,1.176895676E1
1.625591946E1,1.141952738E0,1.086731108E1,9.803628874E-1,1.097103539E1
1.626584246E1,7.861610681E-1,1.025568881E1,-8.464324129E-1,1.032054505E1
1.627576546E1,7.403096880E-1,9.666400570E0,-2.651935662E0,1.005087664E1
1.628568846E1,9.732161281E-1,9.406591237E0,-3.080978619E0,9.946031247E0
1.629561146E1,1.154857397E0,9.389882818E0,-3.137932838E0,9.967457923E0
1.630553446E1,1.249607288E0,9.294412404E0,-3.124897640E0,9.884968668E0
1.631545746E1,1.320956036E0,9.073061963E0,-3.262279726E0,9.731795684E0
1.632538046E1,1.596013738E0,8.802277406E0,-3.736066747E0,9.694614078E0
1.633530446E1,2.213437465E0,8.556386200E0,-4.384880812E0,9.866013884E0
1.634522746E1,2.881477468E0,8.265583116E0,-4.498310364E0,9.841624499E0
1.635515046E1,3.261909305E0,7.831313918E0,-3.891868731E0,9.333604460E0
1.636507346E1,3.317787052E0,7.257685690E0,-3.417902201E0,8.681230786E0
1.637499642E1,2.770784121E0,6.445354239E0,-4.984877644E0,8.606325640E0
1.638491942E1,9.157027687E-1,5.096333760E0,-1.060302161E1,1.179979646E1
1.639484242E1,-8.987610461E-1,2.391301872E0,-1.205659966E1,1.232427245E1
1.640476542E1,-1.728338129E0,-2.275200727E0,-4.416863912E0,5.260454149E0
1.641468842E1,-1.154824945E0,-5.140367972E0,6.719881014E0,8.538958038E0
1.642461242E1,-1.828370102E0,-8.188627911E0,9.560066614E0,1.271972633E1
1.643453542E1,-6.168391514E0,-1.501203154E1,1.026990222E1,1.920627596E1
1.644445842E1,-1.384596810E1,-3.057472344E1,1.552350386E1,3.697977445E1
1.645438142E1,-1.617532925E1,-4.448491034E1,1.621866998E1,5.003592489E1
1.646430442E1,-5.335977216E0,-4.426730504E1,7.467273288E0,4.520870623E1
1.647422742E1,1.051277334E0,-3.988062562E1,1.364349539E0,3.991780222E1
1.648415042E1,1.187605752E0,-3.734896836E1,-2.457001187E0,3.744853401E1
1.649407342E1,4.394529887E0,-3.201887110E1,-2.143933659E0,3.239006717E1
1.650399742E1,8.332722600E0,-2.487484593E1,2.793371038E0,2.638171995E1
1.651392042E1,7.942230336E0,-1.956442455E1,2.833809212E0,2.130437057E1
1.652384342E1,3.091982786E0,-1.557023013E1,-2.303710581E0,1.604055817E1
1.653376642E1,-1.558594482E0,-1.243387721E1,-5.499361285E0,1.368479060E1
1.654368942E1,-4.927761456E0,-8.791154248E0,-5.806482779E0,1.163109918E1
1.655361242E1,-6.796229278E0,-4.667777292E0,-4.950286685E0,9.616767415E0
1.656353542E1,-6.590284495E0,-3.291538024E-1,-3.657146877E0,7.544197455E0
