"Time (s)","Linear Acceleration x (m/s^2)","Linear Acceleration y (m/s^2)","Linear Acceleration z (m/s^2)","Absolute acceleration (m/s^2)"
1.843500067E-3,-7.469201115E-1,7.364755225E-1,-2.322404714E0,2.548303260E0
1.176650007E-2,-5.059461218E-1,7.324485451E-1,-2.575625405E0,2.725125424E0
2.168950008E-2,-2.148416135E-1,8.512294686E-1,-2.684077806E0,2.824008180E0
3.161350009E-2,-2.385798472E-1,1.103925664E0,-2.459276338E0,2.706217346E0
4.153650010E-2,-4.306456786E-1,1.427978940E0,-1.983039334E0,2.481335236E0
5.145950010E-2,-3.899215758E-1,1.510717626E0,-1.555021979E0,2.202816365E0
6.138249999E-2,-4.670486891E-1,1.707803585E0,-1.241803594E0,2.162591900E0
7.130549999E-2,-9.455678612E-1,2.169718126E0,-8.937913513E-1,2.529948281E0
8.122950001E-2,-1.588221593E0,2.653419978E0,-4.191903985E-1,3.120706009E0
9.115250001E-2,-2.119030952E0,2.788638886E0,9.358468652E-3,3.502411540E0
1.010755000E-1,-2.451430544E0,2.792998863E0,9.647028744E-1,3.839401776E0
1.109985000E-1,-2.674979247E0,2.930004680E0,2.284358636E0,4.578071185E0
1.209215000E-1,-2.732978363E0,3.140085198E0,3.405706079E0,5.378488606E0
1.308455000E-1,-1.881752257E0,2.906318487E0,4.176701809E0,5.425174347E0
1.407685000E-1,-6.424332914E-1,2.354419974E0,4.338984262E0,4.978232455E0
1.506915001E-1,2.814090939E-1,1.909810267E0,5.020680145E0,5.379014357E0
1.606145001E-1,6.649839556E-1,1.496335815E0,6.018774129E0,6.237536898E0
1.705375001E-1,8.538441972E-1,1.752264351E-2,6.429552723E0,6.486023834E0
1.804615001E-1,1.494808668E0,-6.910710159E-1,6.389760666E0,6.598566017E0
1.903845001E-1,2.158807075E0,-1.170909027E0,5.770702497E0,6.271561468E0
2.003075001E-1,2.884087373E0,-1.320380524E0,5.256980163E0,6.139804975E0
2.102305001E-1,2.511563602E0,-1.335205262E0,5.065945780E0,5.809865013E0
2.201545001E-1,5.777796046E-1,-7.335884598E-1,4.785661837E0,4.875914326E0
2.300775000E-1,-3.033888506E-1,-9.559384829E-1,3.060404021E0,3.220549014E0
2.400005000E-1,3.919793572E-1,-1.112269641E0,1.454702470E0,1.872685463E0
2.499235000E-1,1.670733992E0,-1.132418561E0,2.814422768E-1,2.037874781E0
2.598465000E-1,1.540221361E0,-2.347595981E0,-5.803227049E-1,2.867100133E0
2.697705000E-1,1.266223320E0,-2.616743902E0,-7.095964569E-1,2.992356476E0
2.796935000E-1,1.012551663E0,-2.324775175E0,-8.541443056E-1,2.675706072E0
2.896165000E-1,-1.368102511E-2,-2.310725193E0,-1.581292350E0,2.800022069E0
2.995395000E-1,-9.728107698E-1,-2.524862802E0,-2.573361363E0,3.734097169E0
3.094625000E-1,-3.991961369E-1,-2.169707893E0,-3.324285355E0,3.989719667E0
3.193865001E-1,-2.116461832E-2,-2.193590261E0,-4.164581700E0,4.707018898E0
3.293095001E-1,2.021227865E-1,-2.426468196E0,-5.016357298E0,5.576059726E0
3.392325001E-1,1.638632851E-1,-2.549591262E0,-5.950024322E0,6.475342169E0
3.491555001E-1,-3.552048657E-1,-2.594394090E0,-7.045049354E0,7.515967775E0
3.590785001E-1,-1.394824058E-1,-2.835210205E0,-7.959315315E0,8.450359314E0
3.690025001E-1,3.277877466E-1,-2.908146034E0,-8.538829350E0,9.026425917E0
3.789255001E-1,-1.783533433E-1,-2.316743148E0,-9.198706348E0,9.487639707E0
3.888485001E-1,-3.245043889E-1,-2.216424515E0,-9.646944544E0,9.903604383E0
3.987715001E-1,-1.391374566E-1,-2.589497339E0,-9.791949645E0,1.012951793E1
4.086945000E-1,-3.025283597E-1,-2.879932926E0,-9.588608043E0,1.001633372E1
4.186185000E-1,-6.403961214E-1,-2.884432358E0,-8.839659240E0,9.320388013E0
4.285415000E-1,-5.927261477E-1,-2.749491485E0,-7.950564373E0,8.433415770E0
4.384645000E-1,-1.504461544E-1,-2.591066439E0,-7.604560649E0,8.035272366E0
4.483875000E-1,1.640862467E-1,-2.673756886E0,-7.620979046E0,8.078070425E0
4.583105000E-1,2.107214643E-1,-2.919189378E0,-7.381022179E0,7.940123335E0
4.682345000E-1,1.955718219E-1,-2.968495731E0,-6.604146490E0,7.243270401E0
4.781575000E-1,7.791829644E-2,-3.025152912E0,-5.638247275E0,6.399019748E0
4.880805000E-1,6.954429790E-2,-3.146155193E0,-4.670800887E0,5.632007620E0
4.980035000E-1,1.512032409E-1,-3.166252658E0,-3.527268523E0,4.742324488E0
5.079265001E-1,1.686103836E-1,-3.107278810E0,-2.318698749E0,3.880718355E0
5.178505001E-1,1.079920340E-1,-2.927512012E0,-1.042645674E0,3.109517465E0
5.277735001E-1,-1.972874681E-1,-2.607945889E0,2.799722868E-1,2.630340014E0
5.376965001E-1,-4.752496649E-1,-2.325723740E0,1.559209755E0,2.840068348E0
5.476194167E-1,-5.049890788E-1,-1.893181371E0,2.707385978E0,3.342018627E0
5.575434167E-1,-5.681500079E-1,-1.411873369E0,4.191903985E0,4.459623287E0
5.674664167E-1,-7.129999749E-1,-1.166951924E0,6.403389941E0,6.547789589E0
5.773894168E-1,-8.275499263E-1,-7.320404094E-1,8.462878112E0,8.534695541E0
5.873124168E-1,-8.671121143E-1,-1.531521727E-1,9.880484676E0,9.919642960E0
5.972354168E-1,-4.651789688E-1,2.886090629E-1,1.077041920E1,1.078432272E1
6.071594167E-1,-3.153979352E-1,7.039851764E-1,1.129435078E1,1.132066387E1
6.170824167E-1,-3.550149409E-1,9.581661259E-1,1.174954248E1,1.179389107E1
6.270054167E-1,-3.726538709E-1,9.685243222E-1,1.222623089E1,1.227019283E1
6.369284167E-1,-2.722593526E-1,1.077089868E0,1.300149216E1,1.304887145E1
6.468514167E-1,-1.609625362E-1,1.487758242E0,1.387379149E1,1.395426185E1
6.567754167E-1,-7.265114285E-2,1.806061512E0,1.406558718E1,1.418125097E1
6.666984167E-1,1.663406773E-1,1.858065186E0,1.357811417E1,1.370566524E1
6.766214167E-1,3.509733820E-1,1.734080095E0,1.258107736E1,1.270487007E1
6.865444167E-1,3.929074930E-1,1.398047774E0,1.156166677E1,1.165251270E1
6.964674167E-1,4.611067486E-1,9.600746571E-1,1.069103273E1,1.074395381E1
7.063914167E-1,6.955986612E-1,5.111767486E-1,9.705437751E0,9.743750874E0
7.163144167E-1,1.066755791E0,-1.647894475E-1,8.863277314E0,8.928762973E0
7.262374167E-1,1.274528267E0,-8.812003957E-1,8.009728839E0,8.158228516E0
7.361604167E-1,1.230859652E0,-1.539790275E0,7.532116570E0,7.785804365E0
7.460834167E-1,1.121125687E0,-2.142929692E0,7.869776317E0,8.233009763E0
7.560074168E-1,1.011398958E0,-2.699096672E0,8.314175232E0,8.799634111E0
7.659304168E-1,9.369418294E-1,-3.074888159E0,7.928002891E0,8.554883227E0
7.758534168E-1,8.197434548E-1,-3.256688619E0,6.564702927E0,7.373826999E0
7.857764167E-1,3.856803710E-1,-3.512341458E0,4.489485161E0,5.713210033E0
7.956994167E-1,1.111702607E-1,-3.597972178E0,1.858681921E0,4.051229579E0
8.056234167E-1,3.660495870E-2,-3.439949420E0,-1.265538027E0,3.665539310E0
8.155464167E-1,-1.281032125E-1,-3.231170785E0,-4.386803961E0,5.449855417E0
8.254694167E-1,-1.651312903E-1,-2.905549870E0,-6.821724308E0,7.416563282E0
8.353924167E-1,-9.828029305E-2,-2.604224136E0,-8.333888535E0,8.731857791E0
8.453164167E-1,-8.779996298E-3,-2.196357894E0,-8.998106505E0,9.262288366E0
8.552394167E-1,1.674224852E-1,-1.932985268E0,-9.250739551E0,9.452018016E0
8.651624167E-1,2.600191385E-1,-1.849111199E0,-9.573423994E0,9.753833561E0
8.750854167E-1,7.170696370E-2,-1.789793535E0,-1.020588807E1,1.036188468E1
8.850084167E-1,-4.030606348E-2,-1.712358273E0,-1.084008527E1,1.097457262E1
8.949324167E-1,-1.106930183E-1,-1.661219987E0,-1.163908156E1,1.175755605E1
9.048554167E-1,-3.701201262E-1,-1.738419021E0,-1.250717791E1,1.263283772E1
9.147784167E-1,-6.258535114E-1,-1.894481499E0,-1.339723055E1,1.354498207E1
9.247014167E-1,-6.557677205E-1,-2.047010505E0,-1.385897932E1,1.402467794E1
9.346244168E-1,-3.952612897E-1,-2.198999520E0,-1.373922835E1,1.391970639E1
9.445484168E-1,-3.436858875E-1,-2.393410378E0,-1.325345453E1,1.347221549E1
9.544714167E-1,-3.128093728E-1,-2.626331582E0,-1.253329859E1,1.280933413E1
9.643944167E-1,-3.132948014E-1,-2.846668409E0,-1.174840344E1,1.209242152E1
9.743174167E-1,-4.410852609E-1,-3.119624621E0,-1.095700035E1,1.140098551E1
9.842404167E-1,-5.405322562E-1,-3.367870501E0,-1.002551667E1,1.058988722E1
9.941644167E-1,-5.788346616E-1,-3.513849748E0,-8.909430556E0,9.594797676E0
1.004087417E0,-4.612141912E-1,-3.510577646E0,-7.952097512E0,8.704753229E0
1.014010417E0,-4.609160197E-1,-3.502234839E0,-6.758267400E0,7.625763613E0
1.023933417E0,-2.385871014E-1,-3.294078347E0,-5.498175470E0,6.413876320E0
1.033856417E0,-8.332118765E-2,-3.059733053E0,-4.631885912E0,5.551871386E0
1.043780417E0,-4.690485648E-2,-2.778067120E0,-4.036511890E0,4.900335216E0
1.053703417E0,-1.923371422E-1,-2.364475285E0,-3.213442027E0,3.994239178E0
1.063626417E0,-3.150677503E-1,-1.813890349E0,-2.516194890E0,3.117804132E0
1.073549417E0,-3.704209654E-1,-1.534420777E0,-1.968526545E0,2.523243066E0
1.083472417E0,-1.884325543E-1,-1.333759831E0,-1.020432687E0,1.689883127E0
1.093396417E0,8.902183919E-2,-8.608893612E-1,3.413692206E-1,9.303699935E-1
1.103319417E0,4.071978688E-1,-3.631438132E-1,1.557943248E0,1.650718237E0
1.113242417E0,5.344157032E-1,-2.023230171E-1,2.720320019E0,2.779689866E0
1.123165417E0,4.528788391E-1,-5.904277168E-2,4.166306629E0,4.191264274E0
1.133088417E0,2.861677407E-1,4.541693196E-2,5.648075275E0,5.655502540E0
1.143012417E0,2.775519781E-2,-1.004651052E-1,7.181387712E0,7.182144043E0
1.152935417E0,-1.439762925E-1,-1.046305154E-1,8.769766302E0,8.771572135E0
1.162858417E0,7.186604451E-2,8.516323417E-3,9.821645315E0,9.821911929E0
1.172781417E0,2.535427807E-1,-2.957018816E-1,1.057597823E1,1.058314883E1
1.182704417E0,-1.378984316E-1,-7.093688540E-1,1.193489922E1,1.195675706E1
1.192628417E0,-9.976447718E-1,-1.032138666E0,1.407488191E1,1.414789406E1
1.202551417E0,-1.823474520E0,-1.342804742E0,1.646901735E1,1.662398016E1
1.212474417E0,-2.221922067E0,-1.365712233E0,1.821248281E1,1.839827811E1
1.222397417E0,-1.918210377E0,-1.002903319E0,1.887673937E1,1.900043777E1
1.232320417E0,-1.016090398E0,-5.781082182E-1,1.798129092E1,1.801925281E1
1.242244417E0,-2.451561010E-1,8.260361552E-3,1.565806467E1,1.565998592E1
1.252167417E0,1.171199853E-1,3.277517863E-1,1.272737119E1,1.273212927E1
1.262090417E0,8.853806432E-2,4.144863135E-1,1.023378982E1,1.024256276E1
1.272013417E0,-7.765032951E-2,2.953908098E-1,8.415140859E0,8.420681741E0
1.281937417E0,-1.595081327E-1,-2.075046004E-1,7.093477163E0,7.098303971E0
1.291860417E0,-1.732226308E-1,-6.497984442E-1,6.211690146E0,6.247986761E0
1.301783417E0,-2.065704346E-1,-8.183089136E-1,5.750026742E0,5.811635601E0
1.311706417E0,-1.457730140E-1,-1.161047260E0,5.497300141E0,5.620461668E0
1.321629417E0,-5.979553674E-2,-1.629727176E0,5.204438252E0,5.453967702E0
1.331553417E0,-3.797382843E-3,-2.001297411E0,4.671406074E0,5.082050812E0
1.341476417E0,2.154777540E-2,-2.358902888E0,3.784967596E0,4.459917807E0
1.351399417E0,-3.250708379E-2,-2.706213611E0,2.404787890E0,3.620449366E0
1.361322417E0,-1.050777178E-1,-2.812418928E0,7.256938416E-1,2.906436496E0
1.371245417E0,-5.168956909E-2,-2.771802998E0,-1.119413184E0,2.989757440E0
1.381169417E0,1.570983489E-1,-2.720892461E0,-2.776703550E0,3.890760630E0
1.391092417E0,3.544436679E-1,-2.596140068E0,-4.111661475E0,4.875585468E0
1.401015417E0,4.532957456E-1,-2.437549547E0,-5.114078305E0,5.683389987E0
1.410938417E0,4.571207382E-1,-2.369373936E0,-6.081314778E0,6.542574543E0
1.420861417E0,4.011640173E-1,-2.281938912E0,-7.560193146E0,7.907256046E0
1.430785417E0,3.691604519E-1,-2.171606484E0,-9.233159312E0,9.492280287E0
1.440708417E0,5.040037499E-1,-2.038904217E0,-1.020880817E1,1.042261553E1
1.450631417E0,8.299998365E-1,-1.845171345E0,-1.065127400E1,1.084173394E1
1.460554417E0,8.926825731E-1,-1.702295215E0,-1.130936993E1,1.147155349E1
1.470477417E0,5.372142537E-1,-1.724375179E0,-1.233518791E1,1.246671286E1
1.480401417E0,4.461418599E-1,-1.809487542E0,-1.322652226E1,1.335717705E1
1.490324417E0,2.620064244E-1,-2.150199535E0,-1.359074415E1,1.376227932E1
1.500247417E0,6.562750395E-2,-2.495458324E0,-1.342963933E1,1.365967905E1
1.510170417E0,1.033970453E-3,-2.650468596E0,-1.286516082E1,1.313534727E1
1.520093417E0,5.785436165E-2,-2.831550725E0,-1.216517426E1,1.249049605E1
1.530017417E0,1.455748025E-1,-3.069249104E0,-1.162615571E1,1.202534734E1
1.539940417E0,1.605168870E-1,-3.261665769E0,-1.137273036E1,1.183229585E1
1.549862875E0,1.146135033E-1,-3.401767102E0,-1.121332942E1,1.171852859E1
1.559785875E0,1.495641750E-1,-3.433066663E0,-1.092158142E1,1.144942169E1
1.569708875E0,2.714942261E-1,-3.374081413E0,-1.060328707E1,1.113049106E1
1.579632875E0,4.640352900E-1,-3.310196197E0,-1.028241994E1,1.081207138E1
1.589555875E0,6.648567787E-1,-3.242465851E0,-9.769058965E0,1.031455924E1
1.599478875E0,6.819768414E-1,-3.167917945E0,-9.000883933E0,9.566436541E0
1.609401875E0,4.330214024E-1,-3.012869081E0,-8.220671237E0,8.766089392E0
1.619324875E0,1.670361305E-2,-2.875387008E0,-7.686643862E0,8.206864402E0
1.629248875E0,-2.490777555E-1,-2.890403243E0,-7.095605550E0,7.665773852E0
1.639171875E0,-3.237913940E-1,-3.012327045E0,-6.269167106E0,6.962859419E0
1.649094875E0,-5.016029197E-1,-3.149536053E0,-4.848066831E0,5.803010842E0
1.659017875E0,-9.155074717E-1,-3.228229928E0,-2.443264323E0,4.150802687E0
1.668940875E0,-1.232975760E0,-3.206682061E0,5.180323166E-1,3.474391536E0
1.678864875E0,-1.321347507E0,-3.306439361E0,3.091673176E0,4.715606378E0
1.688787875E0,-1.520696338E0,-3.611761666E0,6.301608043E0,7.420754922E0
1.698710875E0,-1.462566682E0,-3.620743282E0,1.031583327E1,1.103019942E1
1.708633875E0,-1.087562669E0,-3.140066195E0,1.405765134E1,1.444508115E1
1.718556875E0,-8.338193840E-1,-2.594568629E0,1.707327095E1,1.728940780E1
1.728480875E0,-6.378062434E-1,-2.059710219E0,1.902307413E1,1.914488319E1
1.738403875E0,-4.440537096E-1,-1.313808838E0,1.951840697E1,1.956761324E1
1.748326875E0,-4.664516519E-1,-5.474525821E-1,1.901755435E1,1.903114960E1
1.758249875E0,-5.639060622E-1,1.535185008E-1,1.833606254E1,1.834537401E1
1.768172875E0,-4.485127962E-1,8.825190890E-1,1.743649063E1,1.746457011E1
1.778096875E0,-1.248909715E-1,1.426663170E0,1.640714328E1,1.646952689E1
1.788019875E0,6.043810006E-2,1.699436804E0,1.538405479E1,1.547775436E1
1.797942875E0,4.351826794E-3,1.702088955E0,1.415130502E1,1.425329995E1
1.807865875E0,-9.567703955E-2,1.465731926E0,1.268060399E1,1.276539234E1
1.817788875E0,-8.932080550E-2,1.089878459E0,1.137879159E1,1.143121653E1
1.827712875E0,-7.078560697E-2,5.054724973E-1,1.076417672E1,1.077627085E1
1.837635875E0,-1.099260097E-1,-4.126482412E-2,1.033880581E1,1.033947253E1
1.847558875E0,-1.007438712E-2,-4.637445737E-1,9.814854358E0,9.825809208E0
1.857481875E0,1.686337177E-1,-1.045497508E0,8.999250805E0,9.061347440E0
1.867405875E0,3.100192277E-1,-1.603101587E0,7.909943181E0,8.076710205E0
1.877328875E0,3.309626020E-1,-1.978024908E0,6.673610242E0,6.968442613E0
1.887251875E0,2.553747682E-1,-2.285541236E0,5.513223279E0,5.973654320E0
1.897174875E0,1.998526964E-1,-2.641934000E0,4.136849526E0,4.912563522E0
1.907097875E0,1.488020087E-1,-2.860598230E0,2.444644266E0,3.765826584E0
1.917021875E0,1.248704514E-1,-2.897430719E0,1.051422930E0,3.084831856E0
1.926944875E0,1.888051316E-1,-2.956890470E0,-2.370069462E-1,2.972376309E0
1.936867875E0,2.409450825E-1,-3.066270533E0,-1.750358743E0,3.538901700E0
1.946790875E0,1.382031994E-1,-3.156489269E0,-2.873791888E0,4.270972307E0
1.956713875E0,-7.980431585E-2,-3.193300416E0,-3.551069030E0,4.776361327E0
1.966637875E0,-4.864512490E-2,-3.159984443E0,-4.111039331E0,5.185413427E0
1.976560875E0,1.510003608E-1,-3.069530648E0,-4.757058427E0,5.663428678E0
1.986483875E0,3.705721890E-1,-2.923306695E0,-5.601915600E0,6.329652769E0
1.996406875E0,3.979669791E-1,-2.768230057E0,-7.081576325E0,7.613816298E0
2.006329875E0,3.359687322E-1,-2.638870059E0,-8.524653361E0,8.930074193E0
2.016253875E0,3.155284012E-1,-2.461696501E0,-9.470874356E0,9.790657225E0
2.026176875E0,2.981563235E-1,-2.186286796E0,-1.028929861E1,1.052323206E1
2.036099875E0,2.334899922E-1,-1.984808702E0,-1.109130270E1,1.126991477E1
2.046022875E0,2.307913194E-1,-1.867306272E0,-1.157388628E1,1.172582368E1
2.055945875E0,2.743138997E-1,-1.782145084E0,-1.193836545E1,1.207376738E1
2.065869875E0,2.425008804E-1,-1.758033798E0,-1.228676828E1,1.241427261E1
2.075792875E0,6.995987048E-2,-1.709986350E0,-1.250250247E1,1.261909330E1
2.085715875E0,-6.314729780E-2,-1.701285693E0,-1.252439445E1,1.263957345E1
2.095638875E0,-1.545155972E-1,-1.754982721E0,-1.246942595E1,1.259326895E1
2.105561875E0,-3.215626181E-1,-1.812532187E0,-1.227728644E1,1.241452527E1
2.115485875E0,-5.111194824E-1,-1.912984428E0,-1.209470011E1,1.225571391E1
2.125408875E0,-5.360288769E-1,-2.004715986E0,-1.195201636E1,1.213082471E1
2.135331875E0,-5.085537607E-1,-2.138910462E0,-1.173815795E1,1.194227437E1
2.145254875E0,-4.662962256E-1,-2.350646473E0,-1.114384929E1,1.139861167E1
2.155177875E0,-3.625276263E-1,-2.479057176E0,-1.014035248E1,1.044528119E1
2.165101875E0,-2.350158596E-1,-2.606220376E0,-8.984952024E0,9.358257315E0
2.175024875E0,-1.769095013E-1,-2.680508666E0,-7.739784527E0,8.192721661E0
2.184947875E0,-1.708493922E-1,-2.686907859E0,-6.488661641E0,7.025054680E0
2.194870875E0,-2.517895114E-1,-2.712216655E0,-5.340262640E0,5.994824618E0
2.204793875E0,-2.870800343E-1,-2.689858949E0,-4.403366200E0,5.167919310E0
2.214717875E0,-1.077754221E-1,-2.645475073E0,-3.527123512E0,4.410300917E0
2.224640875E0,1.585825915E-1,-2.511350764E0,-2.933401912E0,3.864825724E0
2.234563875E0,2.729773358E-1,-2.534186187E0,-3.144433773E0,4.047725288E0
2.244486875E0,2.533014734E-2,-2.837983539E0,-3.270846482E0,4.330499843E0
2.254409875E0,-5.728009563E-1,-2.946771279E0,-1.684079969E0,3.442046956E0
2.264333875E0,-1.069483079E0,-2.717901610E0,2.034143999E0,3.559287152E0
2.274256875E0,-8.640417413E-1,-2.279587747E0,6.445474691E0,6.891098056E0
2.284179875E0,-4.134227780E-1,-2.055478735E0,1.000971750E1,1.022694263E1
2.294102875E0,-3.098627416E-1,-1.882074438E0,1.222912175E1,1.237698016E1
2.304025875E0,-6.777361482E-1,-1.573338382E0,1.374115208E1,1.384752615E1
2.313949875E0,-1.048381354E0,-6.861733881E-1,1.530157630E1,1.535279045E1
2.323872875E0,-1.933364606E0,-1.341981747E0,1.633158907E1,1.650029137E1
2.333795875E0,-1.849731881E0,7.500735149E-2,1.754613411E1,1.764352449E1
2.343718875E0,-1.242997157E0,7.759024206E-1,1.928959489E1,1.934516833E1
2.353641875E0,-1.116751239E0,3.263646805E-1,2.039676752E1,2.042992345E1
2.363565875E0,-1.030671819E0,1.260572717E0,2.066429868E1,2.072835179E1
2.373488875E0,-1.165728979E0,1.270146510E0,1.941224141E1,1.948864574E1
2.383411875E0,-1.127468601E0,1.096785629E0,1.744660164E1,1.751736375E1
2.393334875E0,-9.726705828E-1,9.289417420E-1,1.539530951E1,1.545395016E1
2.403257875E0,-8.118823850E-1,4.618126537E-1,1.371553192E1,1.374729936E1
2.413181875E0,-5.155354093E-1,-7.654721573E-2,1.227814481E1,1.228920161E1
2.423104875E0,-3.707456321E-1,-7.712236248E-1,1.108950878E1,1.112247469E1
2.433027875E0,-2.363298386E-1,-1.447001394E0,1.040452968E1,1.050732615E1
2.442950875E0,-2.216738657E-1,-2.117794559E0,9.506593827E0,9.742151676E0
2.452873875E0,-1.466093394E-1,-2.528328739E0,8.166157646E0,8.549857964E0
2.462797875E0,4.257905893E-2,-2.920660830E0,6.633988339E0,7.248577374E0
2.472720875E0,1.345216006E-1,-3.252929736E0,4.892615597E0,5.876847396E0
2.482643875E0,2.017743838E-1,-3.547118651E0,2.744029309E0,4.489149192E0
2.492566875E0,2.990021781E-1,-3.756234378E0,4.760376137E-1,3.798066721E0
2.502489875E0,2.365699034E-1,-3.720970990E0,-1.505469750E0,4.020948843E0
2.512413875E0,5.623208821E-2,-3.507607553E0,-3.330717292E0,4.837370202E0
2.522336875E0,-5.583089612E-2,-3.335800277E0,-4.913731647E0,5.939313031E0
2.532259875E0,-5.758909905E-2,-3.221752675E0,-5.911695238E0,6.732840960E0
2.542182875E0,7.748256924E-2,-2.990769530E0,-6.759114076E0,7.391639130E0
2.552106125E0,2.833872983E-1,-2.736150185E0,-7.565629302E0,8.050190863E0
2.562030125E0,4.832084928E-1,-2.604954746E0,-8.229763657E0,8.645709314E0
2.571953125E0,6.351932690E-1,-2.573171913E0,-8.801903184E0,9.192289369E0
2.581876125E0,8.215008355E-1,-2.491543321E0,-9.336168541E0,9.697767514E0
2.591799125E0,9.693123807E-1,-2.454588333E0,-9.931460702E0,1.027611221E1
2.601722125E0,8.416567726E-1,-2.420591452E0,-1.081134737E1,1.111093521E1
2.611646125E0,6.627079269E-1,-2.423120665E0,-1.153464210E1,1.180502707E1
2.621569125E0,5.751744873E-1,-2.423624695E0,-1.201180063E1,1.226736062E1
2.631492125E0,4.224199618E-1,-2.506152589E0,-1.226460851E1,1.252516911E1
2.641415125E0,1.829026598E-1,-2.613608333E0,-1.227583633E1,1.255231291E1
2.651338125E0,-3.795573860E-3,-2.679509377E0,-1.216709683E1,1.245865282E1
2.661262125E0,-5.405994809E-2,-2.777766866E0,-1.198316214E1,1.230101971E1
2.671185125E0,1.244426362E-2,-2.822982215E0,-1.193032436E1,1.225977254E1
2.681108125E0,1.002991996E-1,-2.822682253E0,-1.195908096E1,1.228809231E1
2.691031125E0,1.915712301E-1,-2.802220799E0,-1.180907649E1,1.213851015E1
2.700954125E0,2.399736772E-1,-2.837250298E0,-1.163578256E1,1.197910733E1
2.710878125E0,2.187231779E-1,-3.051763006E0,-1.146646942E1,1.186764586E1
2.720801125E0,1.422287516E-1,-3.204976428E0,-1.097217387E1,1.143156605E1
2.730724125E0,1.344644898E-1,-3.211173892E0,-1.025687229E1,1.074863468E1
2.740647125E0,2.050192962E-1,-3.156400099E0,-9.424753858E0,9.941372128E0
2.750570125E0,1.662285203E-1,-3.085996115E0,-8.811180961E0,9.337446860E0
2.760494125E0,-4.270314781E-2,-3.129478057E0,-8.243995780E0,8.818102001E0
2.770417125E0,-1.233972272E-1,-3.095008428E0,-7.211987361E0,7.849016864E0
2.780340125E0,1.030774584E-2,-2.852813540E0,-5.902166616E0,6.555472683E0
2.790263125E0,1.819711983E-1,-2.589892611E0,-4.620483257E0,5.299954979E0
2.800186125E0,2.413099122E-1,-2.319630210E0,-3.417642000E0,4.137534487E0
2.810110125E0,1.014916204E-1,-2.172044587E0,-2.051106187E0,2.989166243E0
2.820033125E0,-3.164004403E-1,-2.200145282E0,-2.241366398E-1,2.234051417E0
2.829956125E0,-6.831031613E-1,-2.202355530E0,2.151736184E0,3.153881484E0
2.839879125E0,-8.636129943E-1,-2.023460844E0,5.010872610E0,5.472573938E0
2.849802125E0,-9.261012378E-1,-1.505257350E0,7.750082059E0,7.949039886E0
2.859726125E0,-9.226885834E-1,-1.199298210E0,9.858257071E0,9.973710588E0
2.869649125E0,-8.376922873E-1,-1.378989652E0,1.175729823E1,1.186749352E1
2.879572125E0,-7.562138953E-1,-1.411189537E0,1.392525400E1,1.401699021E1
2.889495125E0,-8.399038504E-1,-1.050351427E0,1.659368934E1,1.664809907E1
2.899418125E0,-1.235670011E0,-1.753072728E0,1.919065533E1,1.931013714E1
2.909342125E0,-1.140348262E0,-1.052809158E0,2.113501358E1,2.119192299E1
2.919265125E0,-1.055479582E0,-3.780496815E-1,2.251907759E1,2.254696907E1
2.929188125E0,-1.156901291E0,-5.022256847E-1,2.278116616E1,2.281605100E1
2.939111125E0,-1.413911416E0,1.990620250E-1,2.285026388E1,2.289483196E1
2.949034125E0,-1.216337946E0,5.767974186E-1,2.194517571E1,2.198642559E1
2.958958125E0,-8.694967550E-1,4.246901433E-1,1.935932879E1,1.938349807E1
2.968881125E0,-6.668124530E-1,2.929908201E-2,1.586161443E1,1.587565147E1
2.978804125E0,-6.373155890E-1,-3.650200385E-1,1.310043173E1,1.312100310E1
2.988727125E0,-5.776646338E-1,-7.698640741E-1,1.163127436E1,1.167102953E1
2.998650125E0,-2.806023974E-1,-1.257456005E0,1.054328060E1,1.062170886E1
3.008574125E0,3.733920453E-2,-1.894188846E0,9.330859854E0,9.521254708E0
3.018497125E0,2.294589217E-1,-2.492524191E0,7.880174421E0,8.268160445E0
3.028420125E0,3.429711750E-1,-3.016430328E0,6.078130969E0,6.794126672E0
3.038343125E0,3.119950019E-1,-3.453803521E0,4.303958271E0,5.527219594E0
3.048266125E0,2.126705788E-1,-3.782908499E0,2.685628488E0,4.644160404E0
3.058190125E0,3.037039790E-1,-3.937436083E0,9.270696098E-1,4.056488269E0
3.068113125E0,3.214070456E-1,-3.826596263E0,-1.169394599E0,4.014178020E0
3.078036125E0,1.330352110E-1,-3.456429505E0,-3.157687656E0,4.683545092E0
3.087959125E0,-1.351598516E-2,-3.096747390E0,-4.719716939E0,5.644976090E0
3.097882125E0,-3.600287821E-2,-2.910436388E0,-5.837451387E0,6.522865542E0
3.107806125E0,1.135980612E-1,-2.819334722E0,-6.727900470E0,7.295628659E0
3.117729125E0,4.474893142E-1,-2.691297071E0,-7.480048869E0,7.962063658E0
3.127652125E0,7.470719198E-1,-2.677061148E0,-8.148359891E0,8.609328763E0
3.137575125E0,6.741958053E-1,-2.780410100E0,-8.862352869E0,9.312707376E0
3.147498125E0,6.012922090E-1,-2.835069579E0,-9.539751048E0,9.970256862E0
3.157422125E0,6.227587994E-1,-2.894048105E0,-1.005744949E1,1.048406568E1
3.167345125E0,5.248338344E-1,-2.819716837E0,-1.063041230E1,1.101053674E1
3.177268125E0,3.535078210E-1,-2.759463327E0,-1.143564757E1,1.176918183E1
3.187191125E0,2.690236679E-1,-2.825004767E0,-1.241507140E1,1.273526692E1
3.197114125E0,1.547289475E-1,-2.996598035E0,-1.331592736E1,1.364981546E1
3.207038125E0,7.421132617E-2,-3.215632102E0,-1.387363478E1,1.424161294E1
3.216961125E0,8.690033231E-2,-3.424518911E0,-1.384495770E1,1.426245894E1
3.226884125E0,1.950639912E-1,-3.549279197E0,-1.336858972E1,1.383309885E1
3.236807125E0,2.475925627E-1,-3.584573868E0,-1.285459140E1,1.334732152E1
3.246730125E0,2.727323740E-1,-3.720292713E0,-1.254457436E1,1.308744844E1
3.256654125E0,4.378990400E-1,-3.737531474E0,-1.222952053E1,1.279539251E1
3.266577125E0,6.870817530E-1,-3.695874448E0,-1.168921559E1,1.227881633E1
3.276500125E0,8.397961155E-1,-3.709908058E0,-1.115876320E1,1.178926085E1
3.286423125E0,8.376367387E-1,-3.790866852E0,-1.067718769E1,1.136110222E1
3.296346125E0,7.258153175E-1,-3.862960974E0,-1.014218734E1,1.087718895E1
3.306270125E0,4.754191976E-1,-3.994563380E0,-9.603439506E0,1.041194556E1
3.316193125E0,2.379100487E-1,-4.137799113E0,-8.640186156E0,9.582838802E0
3.326116125E0,9.953976503E-2,-4.018860315E0,-7.438001541E0,8.454881036E0
3.336039125E0,1.437691823E-1,-3.682837788E0,-6.605173261E0,7.563879795E0
3.345962125E0,4.907628762E-1,-3.279070006E0,-6.049156846E0,6.898220557E0
3.355885125E0,6.518335676E-1,-2.918044201E0,-5.524887890E0,6.282058194E0
3.365809125E0,5.954816115E-1,-2.568735046E0,-4.658694811E0,5.353170596E0
3.375732125E0,2.556513780E-1,-2.155529857E0,-3.188003715E0,3.856816599E0
3.385655125E0,-5.118130353E-1,-1.914257952E0,-1.199486709E0,2.316269513E0
3.395578125E0,-1.230436314E0,-1.658058251E0,1.052932096E0,2.317713677E0
3.405501125E0,-1.570912372E0,-1.884281909E0,2.996241939E0,3.872434602E0
3.415425125E0,-2.124808294E0,-1.354261630E0,5.152055971E0,5.735199698E0
3.425348125E0,-1.941736065E0,-1.245220706E0,7.816143901E0,8.149418325E0
3.435271125E0,-1.978216551E0,-1.517959110E0,1.063282720E1,1.092128907E1
3.445194125E0,-2.208866112E0,-1.331375336E0,1.389044904E1,1.412785278E1
3.455117125E0,-2.297104835E0,-9.350943285E-1,1.720410240E1,1.738195131E1
3.465041125E0,-2.189376465E0,-5.504522038E-1,1.956757854E1,1.969737284E1
3.474964125E0,-2.014292994E0,-3.650171149E-1,2.078267673E1,2.088325324E1
3.484887125E0,-2.014792054E0,3.293444216E-2,2.106888624E1,2.116502869E1
3.494810125E0,-2.281089750E0,5.698004942E-1,2.076045731E1,2.089317187E1
3.504733125E0,-2.360041487E0,1.181986139E0,1.990744912E1,2.008166870E1
3.514657125E0,-2.196882828E0,1.597198530E0,1.830508282E1,1.850549633E1
3.524580125E0,-1.906681861E0,1.641022973E0,1.621377937E1,1.640777357E1
3.534503125E0,-1.524436364E0,1.370486777E0,1.399714669E1,1.414645735E1
3.544426125E0,-1.258861676E0,9.757569625E-1,1.224550799E1,1.234865581E1
3.554349250E0,-1.188341843E0,5.829660118E-1,1.116854910E1,1.124671040E1
3.564273250E0,-1.110072842E0,-3.675340489E-2,1.044806221E1,1.050693182E1
3.574196250E0,-1.100321586E0,-8.642005663E-1,9.926153769E0,1.002427448E1
3.584119250E0,-1.014199555E0,-1.251475912E0,9.476961308E0,9.612886576E0
3.594042250E0,-7.855104192E-1,-2.053500037E0,8.338030118E0,8.623029356E0
3.603965250E0,-5.060263018E-1,-2.824976993E0,6.726915799E0,7.313545911E0
3.613889250E0,-4.002324828E-1,-3.035314204E0,5.413427095E0,6.219205035E0
3.623812250E0,-3.577909796E-1,-3.061313848E0,4.123929518E0,5.148441660E0
3.633735250E0,-1.886669546E-1,-3.141802526E0,2.467405137E0,3.999325748E0
3.643658250E0,6.666245199E-2,-3.289492668E0,5.138965809E-1,3.330059397E0
3.653581250E0,1.214533751E-1,-3.276538162E0,-1.092778532E0,3.456098692E0
3.663505250E0,1.351771831E-1,-3.073307657E0,-2.200176272E0,3.782098419E0
3.673428250E0,2.812439466E-1,-2.883587143E0,-3.439226997E0,4.496938437E0
3.683351250E0,3.708398819E-1,-2.793701990E0,-4.735338360E0,5.510510177E0
3.693274250E0,4.346596460E-1,-2.691542362E0,-5.748409987E0,6.362196686E0
3.703197250E0,5.661793866E-1,-2.598767515E0,-6.616999254E0,7.131537760E0
3.713121250E0,6.662732667E-1,-2.554902872E0,-7.417625164E0,7.873538711E0
3.723044250E0,7.928368342E-1,-2.486893907E0,-8.224173719E0,8.628456694E0
3.732967250E0,9.097144890E-1,-2.412076152E0,-9.105088917E0,9.462998256E0
3.742890250E0,1.011332080E0,-2.258018099E0,-1.014675518E1,1.044404515E1
3.752813250E0,1.199788718E0,-2.033176577E0,-1.136198903E1,1.160465832E1
3.762737250E0,1.509774763E0,-1.892051689E0,-1.266886745E1,1.289804179E1
3.772660250E0,1.552542467E0,-1.957944839E0,-1.400812308E1,1.422924624E1
3.782583250E0,1.239692895E0,-2.138241102E0,-1.505947468E1,1.526095315E1
3.792506250E0,9.176375393E-1,-2.379165975E0,-1.545359689E1,1.566257151E1
3.802429250E0,8.141670384E-1,-2.617982635E0,-1.486687558E1,1.511756232E1
3.812353250E0,7.504663016E-1,-2.898739326E0,-1.385959562E1,1.417936106E1
3.822276250E0,5.971940417E-1,-3.211861232E0,-1.291753901E1,1.332424510E1
3.832199250E0,3.293368202E-1,-3.505780590E0,-1.213507748E1,1.263562684E1
3.842122250E0,1.879039295E-3,-3.720572210E0,-1.157992177E1,1.216294575E1
3.852045250E0,-1.130586190E-1,-3.907366484E0,-1.108612909E1,1.175510754E1
3.861969250E0,1.004111281E-1,-4.020451050E0,-1.041719358E1,1.116655861E1
3.871892250E0,3.018184347E-1,-4.122626758E0,-9.715925902E0,1.055871024E1
3.881815250E0,4.783967460E-1,-4.126449960E0,-9.040928004E0,9.949614661E0
3.891738250E0,6.512318891E-1,-4.159518011E0,-8.652295740E0,9.622261409E0
3.901661250E0,7.736853026E-1,-4.139633385E0,-8.360626098E0,9.361368610E0
3.911585250E0,7.666983184E-1,-4.044452701E0,-7.818752929E0,8.836193826E0
3.921508250E0,6.605676267E-1,-4.023966981E0,-7.014447366E0,8.113638623E0
3.931431250E0,4.127783418E-1,-4.089064325E0,-5.889992713E0,7.182119964E0
3.941354250E0,-1.120780592E-1,-4.165852300E0,-4.172084262E0,5.896878324E0
3.951277250E0,-7.038664048E-1,-4.093051249E0,-1.532195619E0,4.426750485E0
3.961201250E0,-1.115470187E0,-3.544709305E0,9.914702582E-1,3.846069561E0
3.971124250E0,-1.323241859E0,-2.841530460E0,2.716516405E0,4.147857971E0
3.981047250E0,-1.231502261E0,-2.518993952E0,3.918122730E0,4.818050858E0
3.990970250E0,-1.127300055E0,-1.874586348E0,5.047095526E0,5.500732010E0
4.000893250E0,-8.238217416E-1,-1.757085965E0,6.458891712E0,6.744131931E0
4.010817250E0,-6.535729681E-1,-2.085143122E0,8.745546550E0,9.014408684E0
4.020740250E0,-7.854580866E-1,-2.027576260E0,1.243242243E1,1.262113851E1
4.030663250E0,-8.014836967E-1,-1.421645821E0,1.661454051E1,1.669450237E1
4.040586250E0,-7.642797638E-1,-8.920376252E-1,2.021833622E1,2.025243132E1
4.050509250E0,-6.043302395E-1,-4.402782355E-1,2.296705851E1,2.297922619E1
4.060433250E0,-2.729738823E-2,1.459520575E-1,2.455995699E1,2.456040583E1
4.070356250E0,6.770477848E-1,8.841501698E-1,2.461790290E1,2.464307729E1
4.080279250E0,9.521885904E-1,1.463941948E0,2.295867828E1,2.302500157E1
4.090202250E0,7.341574670E-1,1.658206771E0,2.025251904E1,2.033354776E1
4.100125250E0,1.782082592E-1,1.457460894E0,1.741820405E1,1.747998234E1
4.110049250E0,-3.071739726E-1,9.601413153E-1,1.511949868E1,1.515306793E1
4.119972250E0,-6.131343555E-1,1.962715875E-1,1.411448627E1,1.412916059E1
4.129895250E0,-6.200621367E-1,-2.662167120E-1,1.405174682E1,1.406794004E1
4.139818250E0,-3.150864979E-1,-8.090779873E-1,1.356446209E1,1.359222272E1
4.149741250E0,-6.247768197E-3,-1.645375348E0,1.234458555E1,1.245375813E1
4.159665250E0,2.385835383E-1,-2.297453622E0,1.045854509E1,1.071057331E1
4.169588250E0,3.416666246E-1,-2.943574898E0,8.234880556E0,8.751835638E0
4.179511250E0,3.010013959E-1,-3.566565613E0,6.157968267E0,7.122609444E0
4.189434250E0,1.502678509E-1,-3.972007161E0,4.088458554E0,5.702185077E0
4.199357250E0,3.813583285E-2,-4.174579562E0,2.250154179E0,4.742548122E0
4.209281250E0,-1.862853471E-2,-4.080840801E0,8.629525512E-1,4.171126439E0
4.219204250E0,-3.254717376E-2,-4.063408497E0,-7.882812685E-1,4.139291641E0
4.229127250E0,3.099093731E-2,-4.177330384E0,-2.641334075E0,4.942438191E0
4.239050250E0,9.480894729E-2,-4.068846992E0,-4.360898457E0,5.965059927E0
4.248973250E0,1.617391744E-1,-3.867782881E0,-6.259565393E0,7.359895576E0
4.258896250E0,2.334759589E-1,-3.760977932E0,-7.969329257E0,8.815309117E0
4.268820250E0,2.642368448E-1,-3.571540716E0,-9.126492650E0,9.804008991E0
4.278743250E0,3.009817712E-1,-3.218353103E0,-9.876510909E0,1.039200916E1
4.288666250E0,3.657555451E-1,-2.861060453E0,-1.078934430E1,1.116823149E1
4.298589250E0,5.670584424E-1,-2.674475801E0,-1.206207850E1,1.236802789E1
4.308512250E0,8.527594656E-1,-2.492296442E0,-1.330014104E1,1.355848413E1
4.318436250E0,8.792751999E-1,-2.310714084E0,-1.432042287E1,1.453227565E1
4.328359250E0,6.208720491E-1,-2.313348547E0,-1.471910475E1,1.491271632E1
4.338282250E0,2.373951648E-1,-2.415858131E0,-1.450704728E1,1.470874393E1
4.348205250E0,-1.659983959E-1,-2.617107599E0,-1.412587197E1,1.436722195E1
4.358128250E0,-5.236570457E-1,-2.912884910E0,-1.385343850E1,1.416604650E1
4.368052250E0,-6.427662903E-1,-3.200816719E0,-1.379809577E1,1.417906285E1
4.377975250E0,-4.963855588E-1,-3.425552698E0,-1.381906389E1,1.424595861E1
4.387898250E0,-2.312539438E-1,-3.574817788E0,-1.356036904E1,1.402556270E1
4.397821250E0,6.675656475E-2,-3.605683193E0,-1.302161126E1,1.351176405E1
4.407744250E0,3.187676125E-1,-3.574056773E0,-1.241347745E1,1.292168398E1
4.417668250E0,3.891081915E-1,-3.595052955E0,-1.186955541E1,1.240814880E1
4.427591250E0,3.081949695E-1,-3.729960207E0,-1.126612510E1,1.187152737E1
4.437514250E0,1.843380416E-1,-3.820322201E0,-1.048093759E1,1.115701102E1
4.447437250E0,1.601471237E-1,-3.869209894E0,-9.520144165E0,1.027762508E1
4.457360250E0,2.289477289E-1,-3.960483468E0,-8.417377419E0,9.305379572E0
4.467284250E0,3.021374916E-1,-3.873516660E0,-7.095631278E0,8.089709612E0
4.477207250E0,3.484525011E-1,-3.597492121E0,-5.729969623E0,6.774652802E0
4.487130250E0,3.893182162E-1,-3.351653833E0,-4.636181277E0,5.734049958E0
4.497053250E0,2.793571963E-1,-3.117096285E0,-3.648367283E0,4.806757069E0
4.506976250E0,-5.378695621E-2,-2.749885295E0,-2.454110323E0,3.686111725E0
4.516900250E0,-4.602052907E-1,-2.453632606E0,-1.300769255E0,2.814978247E0
4.526823250E0,-6.893125389E-1,-2.436475121E0,1.387544274E-1,2.535905279E0
4.536746250E0,-7.366442878E-1,-2.335799077E0,2.030700574E0,3.181563603E0
4.546669292E0,-6.211199711E-1,-2.070127326E0,3.931656110E0,4.486550672E0
4.556592292E0,-4.131181381E-1,-1.903303486E0,5.494494063E0,5.829467880E0
4.566516292E0,-4.076783637E-1,-2.045813287E0,7.551564994E0,7.834391331E0
4.576439292E0,-4.196475776E-1,-2.079905478E0,1.084555826E1,1.105116487E1
4.586362292E0,-4.385264097E-1,-1.954223525E0,1.449360921E1,1.463133634E1
4.596285292E0,-4.706074873E-1,-1.800433275E0,1.765532852E1,1.775313090E1
4.606208292E0,-5.192694778E-1,-1.528601774E0,1.992514280E1,1.999043720E1
4.616132292E0,-7.296137419E-1,-8.857192701E-1,2.147379423E1,2.150443381E1
4.626055292E0,-1.124705206E0,-4.521110997E-2,2.238850458E1,2.241678263E1
4.635978292E0,-1.297788783E0,6.712963173E-1,2.244968751E1,2.249718569E1
4.645901292E0,-1.156266503E0,1.296621240E0,2.154912742E1,2.161904419E1
4.655824292E0,-8.736224042E-1,1.599442984E0,1.997251226E1,2.005549002E1
4.665748292E0,-6.035742676E-1,1.520752472E0,1.807837692E1,1.815226437E1
4.675671292E0,-5.380657910E-1,1.225575377E0,1.605076835E1,1.610648051E1
4.685594292E0,-4.031103727E-1,6.509471297E-1,1.379444243E1,1.381567487E1
4.695517292E0,-4.194230445E-1,-2.845277064E-2,1.210373055E1,1.211102880E1
4.705440292E0,-5.264232903E-1,-6.961508576E-1,1.126265185E1,1.129641865E1
4.715364292E0,-5.875022817E-1,-1.471526371E0,1.052310771E1,1.064172658E1
4.725287292E0,-5.853166656E-1,-2.319354222E0,9.412506280E0,9.711708093E0
4.735210292E0,-5.033701310E-1,-3.032530052E0,7.984478223E0,8.555788246E0
4.745133292E0,-3.111851260E-1,-3.423431621E0,6.337397681E0,7.209669175E0
4.755056292E0,-9.641115747E-2,-3.727062619E0,4.450087792E0,5.805477778E0
4.764980292E0,9.886399135E-3,-3.972452134E0,2.401447375E0,4.641920205E0
4.774903292E0,5.762538834E-2,-4.002503899E0,7.976186872E-2,4.003713289E0
4.784826292E0,-1.508353231E-2,-4.049256773E0,-2.269421924E0,4.641872876E0
4.794749292E0,7.826881874E-3,-4.004163923E0,-4.142450573E0,5.761361535E0
4.804672292E0,1.690398068E-1,-3.772660376E0,-5.573279446E0,6.732234737E0
4.814596292E0,4.011481567E-1,-3.602457577E0,-6.584823781E0,7.516550050E0
4.824519292E0,5.492559365E-1,-3.552740164E0,-7.349515627E0,8.181627265E0
4.834442292E0,6.893275224E-1,-3.491161382E0,-8.346236685E0,9.073204893E0
4.844365292E0,8.806354085E-1,-3.350546078E0,-9.708878253E0,1.030844288E1
4.854288292E0,1.036045703E0,-3.100128542E0,-1.111540142E1,1.158604058E1
4.864212292E0,1.090228196E0,-2.866842180E0,-1.224702476E1,1.262525236E1
4.874135292E0,1.099820480E0,-2.671678786E0,-1.305799264E1,1.337380441E1
4.884058292E0,1.094688086E0,-2.541064852E0,-1.351928065E1,1.379950368E1
4.893981292E0,1.038812971E0,-2.421149569E0,-1.355492177E1,1.380858435E1
4.903904292E0,8.614056703E-1,-2.439303711E0,-1.326069690E1,1.351067372E1
4.913827292E0,5.718974519E-1,-2.516552447E0,-1.294242242E1,1.319721187E1
4.923751292E0,2.722301348E-1,-2.588308015E0,-1.284190411E1,1.310297480E1
4.933674292E0,1.215822880E-1,-2.614204749E0,-1.296934066E1,1.323074624E1
4.943597292E0,-3.979578428E-3,-2.703015476E0,-1.319761012E1,1.347157085E1
4.953520292E0,-1.159069804E-1,-2.764732545E0,-1.340060673E1,1.368332713E1
4.963443292E0,-1.697373248E-1,-2.799336952E0,-1.349909840E1,1.378734042E1
4.973367292E0,-2.061108434E-1,-2.851335948E0,-1.333777957E1,1.364070974E1
4.983290292E0,-1.598216896E-1,-2.922313253E0,-1.275830880E1,1.308968683E1
4.993213292E0,-1.001037472E-1,-3.024773720E0,-1.187537339E1,1.225494880E1
5.003136292E0,-7.483241010E-2,-3.170735426E0,-1.070613959E1,1.116604621E1
5.013059292E0,-6.726037547E-2,-3.213390279E0,-9.393229179E0,9.927897837E0
5.022983292E0,6.486985099E-2,-3.197033863E0,-8.005673795E0,8.620675527E0
5.032906292E0,2.157910551E-1,-3.219886243E0,-6.840122572E0,7.563167987E0
5.042829292E0,5.749201700E-2,-3.366852208E0,-6.193132837E0,7.049389581E0
5.052752292E0,-3.878226081E-1,-3.689345739E0,-5.779353452E0,6.867503527E0
5.062675292E0,-8.948702357E-1,-3.928124392E0,-5.019870890E0,6.436618502E0
5.072599292E0,-1.388543710E0,-4.211582204E0,-3.601797134E0,5.713004541E0
5.082522292E0,-1.684146042E0,-4.537325033E0,-1.342333018E0,5.022501795E0
5.092445292E0,-1.612829892E0,-4.718060423E0,1.770892995E0,5.291254710E0
5.102368292E0,-1.173179282E0,-4.604186190E0,5.704644747E0,7.424139802E0
5.112291292E0,-6.064709051E-1,-4.202508202E0,9.979728298E0,1.084545338E1
5.122215292E0,-3.155447003E-1,-3.655151807E0,1.382782302E1,1.430623614E1
5.132138292E0,-4.784615770E-1,-2.888616334E0,1.643451059E1,1.669329710E1
5.142061292E0,-8.000296403E-1,-1.907984182E0,1.784092032E1,1.796048131E1
5.151984292E0,-6.175844521E-1,-8.882195395E-1,1.856526521E1,1.859675823E1
5.161907292E0,-1.726784743E-1,9.989353985E-2,1.878653671E1,1.878759586E1
5.171831292E0,1.603085069E-1,1.059373243E0,1.853629225E1,1.856723192E1
5.181754292E0,4.022757923E-1,1.956816034E0,1.777998765E1,1.789186731E1
5.191677292E0,4.066338683E-1,2.787481138E0,1.703011382E1,1.726152308E1
5.201600292E0,1.452335992E-1,2.979507793E0,1.652163761E1,1.678877806E1
5.211523292E0,8.314510424E-2,2.808125317E0,1.610707704E1,1.635024194E1
5.221447292E0,-1.594846913E-3,2.322708916E0,1.539332379E1,1.556757517E1
5.231370292E0,-1.242187884E-1,1.595968861E0,1.457707822E1,1.466471126E1
5.241293292E0,1.289218775E-2,9.807281922E-1,1.369487605E1,1.372995353E1
5.251216292E0,1.647337345E-1,2.518709338E-1,1.286894631E1,1.287246501E1
5.261139292E0,3.050254497E-1,-5.292664989E-1,1.195412954E1,1.196972751E1
5.271063292E0,3.775304853E-1,-1.212449548E0,1.053937232E1,1.061559853E1
5.280986292E0,1.831829607E-1,-1.826639618E0,8.785239789E0,8.974998966E0
5.290909292E0,-1.427726888E-1,-2.282073544E0,7.242878786E0,7.595231189E0
5.300832292E0,-2.564947658E-1,-2.662538711E0,6.056309745E0,6.620709152E0
5.310755292E0,-8.406234051E-2,-2.942075087E0,4.507796302E0,5.383595434E0
5.320679292E0,1.271206336E-1,-3.148152017E0,2.471282426E0,4.004279911E0
5.330602292E0,3.941157470E-1,-3.169984936E0,7.440570223E-1,3.279901304E0
5.340525292E0,6.016758594E-1,-3.036894998E0,-4.360473365E-1,3.126480825E0
5.350448292E0,7.203752873E-1,-2.984453368E0,-1.668062106E0,3.494042594E0
5.360371292E0,7.195609163E-1,-2.982032036E0,-3.264497575E0,4.479645900E0
5.370295292E0,7.488983707E-1,-2.961290500E0,-5.221826702E0,6.049592077E0
5.380218292E0,7.631883080E-1,-2.829392810E0,-6.970709023E0,7.561660159E0
5.390141292E0,6.658330444E-1,-2.609133166E0,-8.221743616E0,8.651472569E0
5.400064292E0,6.837818769E-1,-2.374547552E0,-9.349762732E0,9.670785743E0
5.409987292E0,8.075193389E-1,-2.204885620E0,-1.028777131E1,1.055233845E1
5.419910292E0,1.079771985E0,-2.063552278E0,-1.084814507E1,1.109533267E1
5.429834292E0,1.261988621E0,-1.922676481E0,-1.139202384E1,1.162185472E1
5.439757292E0,1.125755293E0,-1.859387680E0,-1.232117798E1,1.251143774E1
5.449680292E0,8.934763326E-1,-1.926287136E0,-1.335769519E1,1.352541692E1
5.459603292E0,6.444843484E-1,-1.996288248E0,-1.409769541E1,1.425291348E1
5.469526292E0,3.755035480E-1,-2.099284905E0,-1.442086049E1,1.457769589E1
5.479450292E0,1.031603061E-1,-2.240057499E0,-1.389323231E1,1.407303818E1
5.489373292E0,-1.080395518E-1,-2.423208373E0,-1.292041467E1,1.314612972E1
5.499296292E0,-1.899101092E-1,-2.570978330E0,-1.218296033E1,1.245273134E1
5.509219292E0,-2.252715113E-1,-2.728002383E0,-1.194767188E1,1.225722675E1
5.519142292E0,-2.743493484E-1,-2.922034048E0,-1.214506452E1,1.249464456E1
5.529066292E0,-2.933057292E-1,-3.048927399E0,-1.236960930E1,1.274320292E1
5.538989292E0,-2.920930532E-1,-3.207504179E0,-1.207841328E1,1.250045874E1
5.548912375E0,-3.617601792E-1,-3.318004276E0,-1.109548229E1,1.158661944E1
5.558835375E0,-5.293857456E-1,-3.395490993E0,-9.753686051E0,1.034137321E1
5.568758375E0,-5.057967985E-1,-3.425370558E0,-8.469035230E0,9.149511003E0
5.578682375E0,-2.997792730E-1,-3.451594150E0,-7.335508037E0,8.112524142E0
5.588605375E0,-1.920058975E-1,-3.445967667E0,-6.391933492E0,7.264184276E0
5.598528375E0,-6.050355233E-2,-3.363112621E0,-5.694799206E0,6.613994646E0
5.608451375E0,1.746443630E-1,-3.285792550E0,-5.288325332E0,6.228428225E0
5.618374375E0,1.684695023E-1,-3.263691829E0,-4.472627639E0,5.539355948E0
5.628298375E0,-8.826179252E-2,-3.149027345E0,-2.554748506E0,4.055971313E0
5.638221375E0,-2.699715929E-1,-2.844000909E0,-9.690005779E-3,2.856802360E0
5.648144375E0,-3.973444699E-1,-2.495354244E0,2.589303212E0,3.617895320E0
5.658067375E0,-5.645919772E-1,-2.092004391E0,4.513477457E0,5.006668076E0
5.667990375E0,-6.885706734E-1,-1.802978714E0,5.504640736E0,5.833175074E0
5.677914375E0,-7.376283011E-1,-1.707849778E0,6.754861981E0,7.006354741E0
5.687837375E0,-8.051603528E-1,-1.781021250E0,8.992626495E0,9.202589373E0
5.697760375E0,-9.969656908E-1,-1.836015921E0,1.163240404E1,1.181853285E1
5.707683375E0,-1.085306156E0,-1.818676149E0,1.443280285E1,1.458736681E1
5.717606375E0,-9.858620475E-1,-1.904694831E0,1.714754930E1,1.728115255E1
5.727529375E0,-8.690672039E-1,-1.838580802E0,1.971720411E1,1.982180101E1
5.737453375E0,-7.336916631E-1,-1.355367193E0,2.174730125E1,2.180184477E1
5.747376375E0,-4.090368547E-1,-6.424898632E-1,2.286347625E1,2.287615900E1
5.757299375E0,-9.625640726E-2,-4.213094294E-2,2.278995336E1,2.279019558E1
5.767222375E0,-4.864476859E-2,4.331446324E-1,2.118283211E1,2.118731594E1
5.777145375E0,-2.890975795E-1,5.839900786E-1,1.842391228E1,1.843543234E1
5.787069375E0,-4.471601525E-1,4.106749521E-1,1.535239796E1,1.536439811E1
5.796992375E0,-1.927564972E-1,3.218051679E-1,1.290170124E1,1.290715339E1
5.806915375E0,2.932108901E-2,2.391891271E-2,1.129508051E1,1.129514389E1
5.816838375E0,2.380750863E-1,-3.117040298E-1,1.025733539E1,1.026483163E1
5.826761375E0,4.441843218E-1,-6.441357082E-1,9.273878152E0,9.306826876E0
5.836685375E0,4.686113575E-1,-1.183747028E0,8.087289816E0,8.186886478E0
5.846608375E0,3.219057401E-1,-1.838117702E0,6.523344401E0,6.785007161E0
5.856531375E0,4.509156181E-2,-2.347213281E0,4.580496488E0,5.147076016E0
5.866454375E0,-1.624523154E-1,-2.688902052E0,2.578391722E0,3.728899150E0
5.876377375E0,-1.208619475E-1,-2.903423530E0,9.064628524E-1,3.044035267E0
5.886301375E0,-3.619998420E-2,-3.005711212E0,-3.518912852E-1,3.026456312E0
5.896224375E0,8.485715071E-2,-3.130709773E0,-1.383069400E0,3.423656727E0
5.906147375E0,2.355304877E-1,-3.237766444E0,-2.387519892E0,4.029746567E0
5.916070375E0,3.261780813E-1,-3.327039979E0,-3.408663016E0,4.774366001E0
5.925993375E0,3.138041304E-1,-3.434896549E0,-4.449246377E0,5.629634150E0
5.935917375E0,2.924881057E-1,-3.508107782E0,-5.720335166E0,6.716740572E0
5.945840375E0,1.767576016E-1,-3.499153356E0,-7.123084540E0,7.938113807E0
5.955763375E0,1.754857591E-1,-3.318828149E0,-8.536330835E0,9.160478135E0
5.965686375E0,2.595270222E-1,-3.103106529E0,-9.988908427E0,1.046302614E1
5.975609375E0,3.874876723E-1,-2.944767730E0,-1.123477467E1,1.162075580E1
5.985533375E0,5.503795521E-1,-2.694673838E0,-1.194490497E1,1.225744425E1
5.995456375E0,7.678876421E-1,-2.415699086E0,-1.234572693E1,1.260326255E1
6.005379375E0,8.444510838E-1,-2.263167742E0,-1.281021805E1,1.303597761E1
6.015302375E0,6.944466866E-1,-2.275611202E0,-1.337473163E1,1.358470128E1
6.025225375E0,4.890943367E-1,-2.361386347E0,-1.370305630E1,1.391363039E1
6.035149375E0,3.846753808E-1,-2.428254813E0,-1.359027053E1,1.381085984E1
6.045072375E0,2.321977210E-1,-2.547489772E0,-1.330622332E1,1.354987819E1
6.054995375E0,2.382818950E-2,-2.723218191E0,-1.303490549E1,1.331635259E1
6.064918375E0,-1.641849550E-1,-2.869294209E0,-1.281466895E1,1.313299456E1
6.074841375E0,-3.276857127E-1,-3.044466265E0,-1.254964624E1,1.291780838E1
6.084764375E0,-4.882986037E-1,-3.244716152E0,-1.234120820E1,1.276996626E1
6.094688375E0,-5.187609893E-1,-3.342509957E0,-1.231216508E1,1.276835521E1
6.104611375E0,-4.099269471E-1,-3.423117625E0,-1.253406107E1,1.299955619E1
6.114534375E0,-2.535728756E-1,-3.545637551E0,-1.250065592E1,1.299623959E1
6.124457375E0,-2.218553121E-1,-3.745974269E0,-1.168815607E1,1.227577026E1
6.134380375E0,-2.448536355E-1,-3.756102231E0,-1.007874388E1,1.075868651E1
6.144304375E0,-3.139698990E-1,-3.668283776E0,-8.274519415E0,9.056630417E0
6.154227375E0,-4.234451249E-1,-3.615756192E0,-6.708304696E0,7.632453767E0
6.164150375E0,-5.211794708E-1,-3.517073902E0,-5.376071573E0,6.445431129E0
6.174073375E0,-4.349490832E-1,-3.364303699E0,-4.052624477E0,5.285024620E0
6.183996375E0,-3.493177063E-1,-3.350872352E0,-1.901936114E0,3.868814982E0
6.193920375E0,-4.617451914E-1,-3.286596834E0,1.142846485E0,3.510131830E0
6.203843375E0,-7.913500334E-1,-3.136036586E0,4.341709650E0,5.414000649E0
6.213766375E0,-1.091448290E0,-2.808473811E0,7.043610354E0,7.661020254E0
6.223689375E0,-1.204251313E0,-2.562721769E0,8.985684096E0,9.421267577E0
6.233612375E0,-1.320080123E0,-2.543315445E0,1.094714077E1,1.131596024E1
6.243536375E0,-1.234294599E0,-2.219504536E0,1.349683319E1,1.373368813E1
6.253459375E0,-9.369502348E-1,-1.436075580E0,1.602941666E1,1.612086806E1
6.263382375E0,-8.056181167E-1,-7.053803220E-1,1.789752838E1,1.792953162E1
6.273305375E0,-8.431580452E-1,-4.521650402E-1,1.912915314E1,1.915306421E1
6.283228375E0,-9.008916253E-1,-2.693910192E-1,2.011635376E1,2.013831835E1
6.293152375E0,-1.085780877E0,3.342467272E-1,2.091520037E1,2.094603178E1
6.303075375E0,-1.304114155E0,1.004934788E0,2.114555260E1,2.120954979E1
6.312998375E0,-1.184229423E0,1.365558013E0,2.059674463E1,2.067590475E1
6.322921375E0,-8.161457361E-1,1.338148897E0,1.944473088E1,1.950780088E1
6.332844375E0,-6.620109388E-1,9.723780759E-1,1.796936377E1,1.800782640E1
6.342768375E0,-6.579839614E-1,5.622118315E-1,1.639980970E1,1.642263022E1
6.352691375E0,-5.594171548E-1,6.571978033E-2,1.459150447E1,1.460237204E1
6.362614375E0,-4.978458278E-1,-6.910109358E-1,1.256034547E1,1.258918683E1
6.372537375E0,-4.766768241E-1,-1.334731638E0,1.087254200E1,1.096452912E1
6.382460375E0,-4.052351412E-1,-1.901821948E0,9.450270522E0,9.648251405E0
6.392383375E0,-3.938165158E-1,-2.573450240E0,8.165767052E0,8.570734457E0
6.402307375E0,-3.365304304E-1,-3.036835649E0,6.799005536E0,7.453998911E0
6.412230375E0,-3.365718360E-1,-3.455225564E0,5.344420010E0,6.372965522E0
6.422153375E0,-1.881231270E-1,-3.775783667E0,3.837982546E0,5.387211025E0
6.432076375E0,-3.765324569E-2,-3.959069904E0,2.426009189E0,4.643401001E0
6.441999375E0,1.139817025E-1,-4.032275874E0,9.529833001E-1,4.144926745E0
6.451923375E0,3.214925612E-1,-4.079207381E0,-6.284031898E-1,4.139828607E0
6.461846375E0,4.754622477E-1,-4.075940834E0,-2.451437561E0,4.780052735E0
6.471769375E0,5.381382599E-1,-3.962703071E0,-4.299565843E0,5.871871495E0
6.481692375E0,6.486732206E-1,-3.733570570E0,-5.965398991E0,7.067270425E0
6.491615375E0,8.419187278E-1,-3.498436487E0,-7.450125158E0,8.273587485E0
6.501539375E0,9.305881718E-1,-3.237359478E0,-8.756071538E0,9.381645885E0
6.511462375E0,9.060922851E-1,-3.013796158E0,-9.697077987E0,1.019496405E1
6.521385375E0,8.044995444E-1,-2.866856798E0,-1.045320659E1,1.086902090E1
6.531308375E0,8.257587048E-1,-2.669174423E0,-1.125892367E1,1.160041946E1
6.541231375E0,1.017662276E0,-2.433665826E0,-1.205565592E1,1.234087539E1
6.551155375E0,1.121875300E0,-2.323031536E0,-1.280942750E1,1.306661826E1
6.561078375E0,1.027328966E0,-2.358476188E0,-1.342807695E1,1.367227360E1
6.571001375E0,8.983769571E-1,-2.427171324E0,-1.397407592E1,1.421172190E1
6.580924375E0,7.577586566E-1,-2.529840537E0,-1.457018786E1,1.480758811E1
6.590847375E0,5.882088447E-1,-2.743269463E0,-1.504632195E1,1.530566304E1
6.600771375E0,4.022570447E-1,-2.999741205E0,-1.505375259E1,1.535499024E1
6.610694375E0,2.846297037E-1,-3.156782215E0,-1.437341736E1,1.471874365E1
6.620617375E0,3.339918617E-1,-3.331004098E0,-1.339534424E1,1.380733088E1
6.630540375E0,3.967854761E-1,-3.545999494E0,-1.262996710E1,1.312431408E1
6.640463375E0,3.260528412E-1,-3.681166070E0,-1.225113769E1,1.279639280E1
6.650387375E0,2.299289647E-1,-3.780147736E0,-1.193436946E1,1.252084497E1
6.660310375E0,1.103627237E-1,-3.808628062E0,-1.151474988E1,1.212877951E1
6.670233375E0,9.090940263E-2,-3.784634012E0,-1.109751713E1,1.172546824E1
6.680156375E0,8.268436192E-2,-3.782726651E0,-1.062309978E1,1.127679504E1
6.690079375E0,3.088019653E-2,-3.747382278E0,-9.926550211E0,1.061038296E1
6.700002375E0,3.119142372E-3,-3.664623712E0,-9.075948148E0,9.787865522E0
6.709926375E0,-1.450946365E-2,-3.614903668E0,-8.025763074E0,8.802307196E0
6.719849375E0,-8.459660243E-2,-3.560630981E0,-6.700777575E0,7.588522233E0
6.729772375E0,-2.660160977E-1,-3.388852649E0,-5.046602021E0,6.084675735E0
6.739695375E0,-4.375093231E-1,-3.127055263E0,-3.425754427E0,4.658935761E0
6.749618375E0,-5.191080581E-1,-3.067280347E0,-2.178510584E0,3.797840211E0
6.759542375E0,-5.509849582E-1,-3.179820537E0,-9.211229914E-1,3.356085612E0
6.769465375E0,-4.949940311E-1,-3.203875690E0,7.469005233E-1,3.326815131E0
6.779388375E0,-5.855424412E-1,-3.177140758E0,3.323396578E0,4.634873047E0
6.789311375E0,-9.350601954E-1,-3.233014704E0,6.918126183E0,7.693321229E0
6.799234375E0,-1.241912644E0,-3.215587078E0,1.093076389E1,1.146141119E1
6.809158375E0,-1.385455357E0,-2.903305124E0,1.443294903E1,1.478711212E1
6.819081375E0,-1.450641871E0,-2.351799837E0,1.682298673E1,1.704840775E1
6.829004375E0,-1.399750483E0,-1.693128974E0,1.852076790E1,1.865059867E1
6.838927375E0,-1.183662901E0,-1.021362979E0,2.008979103E1,2.015053210E1
6.848850375E0,-1.316713443E0,-4.966224441E-1,2.147479294E1,2.152085268E1
6.858774375E0,-1.645691683E0,2.631052624E-1,2.265109602E1,2.271232433E1
6.868697375E0,-1.835004937E0,8.971605170E-1,2.303671989E1,2.312709674E1
6.878620375E0,-1.908371706E0,1.297618629E0,2.238479511E1,2.250343860E1
6.888543375E0,-1.760790176E0,1.513267597E0,2.092046754E1,2.104890313E1
6.898466375E0,-1.462094520E0,1.325662314E0,1.914774612E1,1.924918914E1
6.908389375E0,-1.275750189E0,6.778380360E-1,1.712880547E1,1.718961837E1
6.918313375E0,-1.182197589E0,1.021800935E-4,1.551517977E1,1.556015406E1
6.928236375E0,-1.082684118E0,-5.248973863E-1,1.423424310E1,1.428500608E1
6.938159375E0,-9.545887993E-1,-1.105812707E0,1.286490939E1,1.294758492E1
6.948082375E0,-6.994406473E-1,-1.712781904E0,1.090381057E1,1.105965297E1
6.958005375E0,-4.876938189E-1,-2.355808542E0,8.320895437E0,8.661696140E0
6.967929375E0,-3.054400539E-1,-2.972219238E0,5.810651259E0,6.533838755E0
6.977852375E0,-6.395870861E-2,-3.351058586E0,3.782479021E0,5.053793813E0
6.987775375E0,3.551701114E-2,-3.644080981E0,2.170060773E0,4.241432708E0
6.997698375E0,-3.931287736E-2,-3.918933154E0,7.199752647E-1,3.984714161E0
7.007621375E0,-2.472670555E-2,-4.132969313E0,-6.016533476E-1,4.176605500E0
7.017545375E0,1.688687575E-1,-4.292253900E0,-1.805406185E0,4.659554881E0
7.027468375E0,3.342235942E-1,-4.297762561E0,-3.177538953E0,5.355298521E0
7.037391375E0,5.474301434E-1,-4.279273081E0,-4.691570197E0,6.373593082E0
7.047314375E0,7.981237404E-1,-4.175235035E0,-5.854539875E0,7.235000086E0
7.057237375E0,9.846241920E-1,-3.970583948E0,-6.729518979E0,7.875369666E0
7.067161375E0,1.163686181E0,-3.747820820E0,-7.773729368E0,8.708110858E0
7.077084375E0,1.282665398E0,-3.568162487E0,-8.938029873E0,9.709036619E0
7.087007375E0,1.229469185E0,-3.353101896E0,-9.948172045E0,1.056981617E1
7.096930375E0,1.115265462E0,-3.108478366E0,-1.073282161E1,1.122942182E1
7.106853375E0,1.087462243E0,-2.915537499E0,-1.138904293E1,1.180649109E1
7.116777375E0,1.064404114E0,-2.715478524E0,-1.177027788E1,1.212626163E1
7.126700375E0,9.608488284E-1,-2.525013075E0,-1.186982672E1,1.217340166E1
7.136623375E0,8.575685082E-1,-2.362831194E0,-1.211589978E1,1.237390086E1
7.146546375E0,7.296936294E-1,-2.280219977E0,-1.266473932E1,1.288904488E1
7.156469375E0,6.355660290E-1,-2.268746570E0,-1.333881102E1,1.354529566E1
7.166392375E0,6.084361543E-1,-2.331126129E0,-1.379312681E1,1.400195311E1
7.176316375E0,5.616243325E-1,-2.444459786E0,-1.396744985E1,1.419085836E1
7.186239375E0,4.985203772E-1,-2.614269653E0,-1.404232696E1,1.429230124E1
7.196162375E0,4.806318807E-1,-2.832117905E0,-1.378541901E1,1.408153671E1
7.206085375E0,4.756674119E-1,-3.090549049E0,-1.305185306E1,1.342120044E1
7.216008375E0,4.569641790E-1,-3.353134348E0,-1.198060573E1,1.244938713E1
7.225932375E0,4.279224110E-1,-3.585609117E0,-1.089035261E1,1.147342540E1
7.235855375E0,3.579889078E-1,-3.748771577E0,-1.008571025E1,1.076582536E1
7.245778375E0,3.738682645E-1,-3.691506286E0,-9.535846277E0,1.023227054E1
7.255701375E0,4.028620853E-1,-3.502713726E0,-9.317723499E0,9.962493288E0
7.265624375E0,2.397030973E-1,-3.514357286E0,-9.273919668E0,9.920370493E0
7.275548375E0,-2.101864258E-1,-3.516082799E0,-8.904286761E0,9.575663909E0
7.285471375E0,-7.378656980E-1,-3.305389493E0,-7.761362507E0,8.468104479E0
7.295394375E0,-8.717148232E-1,-3.176144100E0,-5.869891739E0,6.730780572E0
7.305317375E0,-6.505083693E-1,-2.978176089E0,-3.753309016E0,4.835289291E0
7.315240375E0,-3.553501325E-1,-2.620635809E0,-2.083265288E0,3.366600663E0
7.325164375E0,-1.834130486E-1,-2.501708705E0,-7.176393020E-1,2.609059785E0
7.335087375E0,-3.213342478E-1,-2.535521399E0,1.226163461E0,2.834713618E0
7.345010375E0,-3.990462289E-1,-2.408677165E0,3.789851775E0,4.508208076E0
7.354933375E0,-5.346735654E-1,-2.262192719E0,6.695067769E0,7.087123828E0
7.364856375E0,-5.997149225E-1,-1.961330377E0,9.725818221E0,9.939719056E0
7.374780375E0,-5.025173146E-1,-1.635370908E0,1.248392002E1,1.260060399E1
7.384703375E0,-5.344072978E-1,-1.420255938E0,1.497195238E1,1.504865696E1
7.394626375E0,-7.718823136E-1,-9.861339431E-1,1.745525552E1,1.750012022E1
7.404549375E0,-1.136140314E0,-4.300729439E-1,1.945107745E1,1.948897615E1
7.414472375E0,-1.462199477E0,3.274294585E-2,2.073378465E1,2.078530552E1
7.424395375E0,-1.427735403E0,6.748148793E-1,2.142255625E1,2.148068248E1
7.434319375E0,-1.140399937E0,1.280182232E0,2.140194599E1,2.147050699E1
7.444242375E0,-9.540593340E-1,1.475098435E0,2.065088985E1,2.072547698E1
7.454165375E0,-1.003271694E0,1.540930774E0,1.935801667E1,1.944514930E1
7.464088375E0,-1.126976557E0,1.491781711E0,1.765012216E1,1.774886760E1
7.474011375E0,-9.852742562E-1,1.214546359E0,1.566248516E1,1.574037260E1
7.483935375E0,-9.456713569E-1,7.106677399E-1,1.385011728E1,1.390054286E1
7.493858375E0,-1.197600105E0,1.506796045E-1,1.264626329E1,1.270373668E1
7.503781375E0,-1.323554393E0,-4.158051530E-1,1.177349502E1,1.185495150E1
7.513704375E0,-1.249490343E0,-9.561760260E-1,1.072762928E1,1.084239497E1
7.523627375E0,-1.044436530E0,-1.477166595E0,9.499889410E0,9.670613611E0
7.533551375E0,-7.308487469E-1,-2.040707791E0,8.240807878E0,8.521123322E0
7.543474375E0,-3.921918669E-1,-2.507649476E0,6.834592275E0,7.290663339E0
7.553397375E0,-2.515918572E-1,-2.933221233E0,5.287263477E0,6.051631214E0
7.563320375E0,-2.170335702E-1,-3.174106930E0,3.531953897E0,4.753604601E0
7.573243375E0,-1.525577484E-1,-3.338875035E0,1.558007568E0,3.687648024E0
7.583167375E0,-4.197564455E-2,-3.522359493E0,-1.274640387E-1,3.524914954E0
7.593090375E0,8.828223037E-2,-3.572776818E0,-1.449418341E0,3.856597136E0
7.603013375E0,1.040140362E-1,-3.510763880E0,-2.584312613E0,4.360613904E0
7.612936375E0,1.044864547E-1,-3.487144344E0,-3.734909583E0,5.110835811E0
7.622859375E0,1.247590802E-1,-3.433757511E0,-5.058463683E0,6.115088741E0
7.632782375E0,2.456717524E-1,-3.325351887E0,-6.364822876E0,7.185352464E0
7.642706375E0,4.144341636E-1,-3.199383274E0,-7.438338341E0,8.107816370E0
7.652629375E0,5.893253705E-1,-3.055673331E0,-8.288338725E0,8.853304621E0
7.662552375E0,7.326175296E-1,-2.953281569E0,-8.999925574E0,9.500382140E0
7.672475375E0,7.657381325E-1,-2.969821003E0,-9.840274544E0,1.030714290E1
7.682398375E0,7.521804129E-1,-3.006314353E0,-1.072168266E1,1.116056363E1
7.692322375E0,8.190797228E-1,-2.987486318E0,-1.132700631E1,1.174295695E1
7.702245375E0,8.315304183E-1,-2.914591712E0,-1.186874850E1,1.224963177E1
7.712168375E0,7.282571147E-1,-2.837257023E0,-1.227137841E1,1.261614497E1
7.722091375E0,6.218515308E-1,-2.867053556E0,-1.212666099E1,1.247648197E1
7.732014375E0,5.746387728E-1,-2.936598001E0,-1.164087549E1,1.201930945E1
7.741938375E0,5.214400373E-1,-2.924089637E0,-1.142614468E1,1.180588760E1
7.751861375E0,4.544181186E-1,-2.915195145E0,-1.145711504E1,1.183090629E1
7.761784375E0,3.641903917E-1,-3.017497153E0,-1.133889487E1,1.173918483E1
7.771707375E0,1.814142145E-1,-3.058302532E0,-1.106577610E1,1.148205235E1
7.781630375E0,3.345045894E-2,-3.022833906E0,-1.072439577E1,1.114232060E1
7.791554375E0,-3.175275642E-2,-2.960278639E0,-1.062945921E1,1.103402288E1
7.801477375E0,-8.210071843E-2,-2.900131255E0,-1.069255417E1,1.107917942E1
7.811400375E0,-1.656861363E-1,-2.804745626E0,-1.055036743E1,1.091807230E1
7.821323375E0,-2.358658438E-1,-2.733408426E0,-1.006316923E1,1.043046161E1
7.831246375E0,-2.222773349E-1,-2.665438929E0,-9.358115480E0,9.732846307E0
7.841169375E0,-9.529576454E-2,-2.601643468E0,-8.566651572E0,8.953499270E0
7.851093375E0,1.077735400E-1,-2.526155037E0,-7.746788907E0,8.148976180E0
7.861016375E0,2.697396412E-1,-2.445059857E0,-7.050515916E0,7.467318920E0
7.870939375E0,3.670482914E-1,-2.426291025E0,-6.524598044E0,6.970795667E0
7.880862375E0,3.672440635E-1,-2.487366070E0,-6.040961389E0,6.543322755E0
7.890785375E0,2.772234011E-1,-2.532656848E0,-5.317914582E0,5.896729519E0
7.900709375E0,3.396159695E-2,-2.540679520E0,-4.409359011E0,5.089071890E0
7.910632375E0,-2.435762747E-1,-2.631617757E0,-3.806378345E0,4.633924636E0
7.920555375E0,-4.812588850E-1,-2.785483144E0,-3.500676556E0,4.499473614E0
7.930478375E0,-6.177471509E-1,-2.851843487E0,-3.066556461E0,4.233012089E0
7.940401375E0,-5.108554441E-1,-2.833042350E0,-2.079621304E0,3.551327499E0
7.950325375E0,-6.013576247E-2,-3.023802205E0,5.650749207E-2,3.024927963E0
7.960248375E0,9.235297054E-2,-3.285726476E0,3.791060979E0,5.017635987E0
7.970171375E0,-2.446997624E-1,-3.410779708E0,8.264331227E0,8.943850782E0
7.980094375E0,-9.642601671E-1,-3.443370334E0,1.245321045E1,1.295642880E1
7.990017375E0,-1.797991331E0,-3.182757009E0,1.571841963E1,1.613788805E1
7.999941375E0,-2.264001555E0,-2.479625233E0,1.783068418E1,1.814407735E1
8.009864375E0,-2.172907782E0,-1.801502584E0,1.903176309E1,1.923993103E1
8.019787375E0,-1.761929213E0,-1.174829439E0,1.994754699E1,2.005964231E1
8.029710375E0,-1.247615434E0,-2.053439811E-1,2.090086299E1,2.093907315E1
8.039633375E0,-8.769727126E-1,7.697122657E-1,2.149773273E1,2.152937646E1
8.049557375E0,-6.622383224E-1,1.600850994E0,2.128655002E1,2.135693084E1
8.059480375E0,-4.853216035E-1,2.340350989E0,2.007993029E1,2.022168094E1
8.069403375E0,-1.808891711E-1,2.585744011E0,1.791678560E1,1.810331459E1
8.079326375E0,4.016711902E-2,2.365118771E0,1.550540790E1,1.568480393E1
8.089249375E0,7.905771777E-2,1.845454496E0,1.328085108E1,1.340868964E1
8.099172375E0,-2.788361728E-2,1.336399848E0,1.138601641E1,1.146421003E1
8.109096375E0,-1.511370029E-1,6.179469795E-1,1.000664888E1,1.002685009E1
8.119019375E0,-2.273188408E-1,-1.551799871E-1,9.149156458E0,9.153295503E0
8.128942375E0,-2.231997697E-1,-8.350791666E-1,8.455942730E0,8.500008400E0
8.138865375E0,-1.845515746E-1,-1.557557917E0,7.771869954E0,7.928556522E0
8.148788375E0,-2.186489183E-1,-2.068722532E0,7.031446391E0,7.332711546E0
8.158712375E0,-2.366347709E-1,-2.362036265E0,6.011146436E0,6.462901269E0
8.168635375E0,5.474671271E-2,-2.545811329E0,4.633722523E0,5.287299589E0
8.178558375E0,4.344777611E-1,-2.817591375E0,3.033400995E0,4.162825203E0
8.188481375E0,5.879362913E-1,-3.076631506E0,1.354630297E0,3.412675454E0
8.198404375E0,6.193751619E-1,-3.124993827E0,-2.848862869E-1,3.198495304E0
8.208328375E0,5.879355970E-1,-3.082154494E0,-1.848751595E0,3.641871367E0
8.218251375E0,4.838817997E-1,-3.047549210E0,-3.219188086E0,4.459245420E0
8.228174375E0,3.687471634E-1,-2.993767690E0,-4.282669728E0,5.238308835E0
8.238097375E0,3.030289545E-1,-2.964452382E0,-5.033402517E0,5.849354269E0
8.248020375E0,3.251136322E-1,-2.978038387E0,-5.614607567E0,6.363821936E0
8.257943375E0,4.260484515E-1,-2.832918973E0,-6.111234981E0,6.749380726E0
8.267867375E0,5.349530623E-1,-2.705823017E0,-6.546796998E0,7.104097685E0
8.277790375E0,5.901135752E-1,-2.689626522E0,-6.986330445E0,7.509403301E0
8.287713375E0,4.884501562E-1,-2.738387623E0,-7.440837441E0,7.943765615E0
8.297636375E0,3.325842176E-1,-2.737533929E0,-7.881881808E0,8.350375148E0
8.307559375E0,3.567803615E-1,-2.669770547E0,-8.245360520E0,8.674153395E0
8.317483375E0,4.688365119E-1,-2.589691174E0,-8.680801501E0,9.070976946E0
8.327406375E0,6.337564619E-1,-2.545424536E0,-9.131642293E0,9.500932811E0
8.337329375E0,7.935292176E-1,-2.532255437E0,-9.427883872E0,9.794233024E0
8.347252375E0,8.645083492E-1,-2.510793816E0,-9.628789524E0,9.988245491E0
8.357175375E0,9.041583916E-1,-2.509133792E0,-9.810275989E0,1.016635479E1
8.367099375E0,9.123150381E-1,-2.536245869E0,-1.000542564E1,1.036211388E1
8.377022375E0,8.742058101E-1,-2.582287430E0,-1.023257243E1,1.058952231E1
8.386945375E0,7.771570138E-1,-2.579002172E0,-1.043848914E1,1.078041190E1
8.396868375E0,6.729915713E-1,-2.584729812E0,-1.060258307E1,1.093382429E1
8.406791375E0,5.853317953E-1,-2.553674957E0,-1.060129434E1,1.092022485E1
8.416715375E0,4.721923386E-1,-2.478971222E0,-1.036582229E1,1.066857702E1
8.426638375E0,3.320964868E-1,-2.428352754E0,-9.985432842E0,1.028183127E1
8.436561375E0,1.666012073E-1,-2.406167833E0,-9.611641395E0,9.909644288E0
8.446484375E0,2.548128873E-2,-2.389150096E0,-9.303863844E0,9.605757123E0
8.456407375E0,-8.168651629E-2,-2.482733321E0,-9.174426954E0,9.504774977E0
8.466330375E0,-1.739119444E-1,-2.552864825E0,-8.896994113E0,9.257638383E0
8.476254375E0,-7.680354305E-2,-2.501953996E0,-8.305914871E0,8.674900254E0
8.486177375E0,1.165305860E-1,-2.380361439E0,-7.583109553E0,7.948789245E0
8.496100375E0,1.826849972E-1,-2.312106306E0,-6.787622176E0,7.172936929E0
8.506023375E0,7.959599052E-2,-2.321254421E0,-5.957631549E0,6.394367153E0
8.515946375E0,5.443246141E-3,-2.241232643E0,-5.150325780E0,5.616850455E0
8.525870375E0,1.897798990E-1,-1.954848592E0,-4.466009760E0,4.878800324E0
8.535793375E0,4.695211477E-1,-1.696705131E0,-4.106629946E0,4.468072058E0
8.545716375E0,4.103845648E-1,-1.771907195E0,-4.324232907E0,4.691168386E0
8.555639000E0,8.967940427E-2,-2.044462581E0,-4.662807743E0,5.092116032E0
8.565562000E0,-4.624504753E-1,-2.509304531E0,-3.690595289E0,4.486754201E0
8.575486000E0,-1.063114584E0,-3.098472026E0,-8.928616440E-1,3.395282526E0
8.585409000E0,-1.320548485E0,-3.353049271E0,3.289248839E0,4.879133698E0
8.595332000E0,-1.600775565E0,-3.165006908E0,7.823020812E0,8.589493918E0
8.605255000E0,-1.655805465E0,-3.157163161E0,1.129944955E1,1.184849911E1
8.615178000E0,-1.223473815E0,-2.895328352E0,1.383854915E1,1.419102734E1
8.625102000E0,-4.718151931E-1,-2.329193624E0,1.587254171E1,1.604946519E1
8.635025000E0,1.269531383E-1,-1.488583868E0,1.764936203E1,1.771248088E1
8.644948000E0,8.243799314E-2,-2.453670028E-1,1.959002483E1,1.959173484E1
8.654871000E0,2.805309883E-1,4.091431278E-1,2.091606108E1,2.092194319E1
8.664794000E0,4.290925851E-1,9.622031897E-1,2.103415846E1,2.106052653E1
8.674718000E0,5.024785402E-1,1.742452869E0,2.040331874E1,2.048375069E1
8.684641000E0,4.087630588E-1,2.016259413E0,1.901612062E1,1.912708113E1
8.694564000E0,1.936433737E-1,2.119328283E0,1.719586835E1,1.732705799E1
8.704487000E0,-7.533402812E-2,2.198205615E0,1.535642085E1,1.551313780E1
8.714410000E0,-2.042961600E-1,1.918638978E0,1.372117682E1,1.385617573E1
8.724333000E0,-1.709825990E-1,1.506659074E0,1.240234084E1,1.249469147E1
8.734257000E0,-1.542870990E-1,8.978697842E-1,1.132326292E1,1.135985289E1
8.744180000E0,-1.614376590E-1,1.744296058E-1,1.037697877E1,1.037970020E1
8.754103000E0,-7.660503464E-2,-5.385082060E-1,9.633797080E0,9.649140148E0
8.764026000E0,3.430408848E-2,-1.153427753E0,8.938881227E0,9.013055528E0
8.773949000E0,7.615612837E-2,-1.708910609E0,7.836163014E0,8.020699845E0
8.783873000E0,1.311240851E-2,-2.206607186E0,6.487394550E0,6.852413827E0
8.793796000E0,6.575642592E-2,-2.512600314E0,5.131693627E0,5.714172182E0
8.803719000E0,2.066801430E-1,-2.692355417E0,3.606332819E0,4.505233709E0
8.813642000E0,2.969976246E-1,-2.884087665E0,1.815200272E0,3.420690175E0
8.823565000E0,1.702365309E-1,-3.112106271E0,-9.423372746E-3,3.116773126E0
8.833489000E0,-9.313897337E-3,-3.126690397E0,-1.640608259E0,3.530987829E0
8.843412000E0,2.827030096E-2,-3.092417234E0,-3.028955941E0,4.328789398E0
8.853335000E0,1.600775784E-1,-3.079255444E0,-4.142839998E0,5.164354962E0
8.863258000E0,3.736147877E-1,-2.953851380E0,-5.024675547E0,5.840564214E0
8.873181000E0,5.482270093E-1,-2.757786053E0,-5.840527022E0,6.482105574E0
8.883104000E0,6.836019288E-1,-2.644613486E0,-6.578138659E0,7.122724219E0
8.893028000E0,7.941827171E-1,-2.609987445E0,-7.292670166E0,7.786257047E0
8.902951000E0,8.833034930E-1,-2.379899801E0,-7.752088239E0,8.157145345E0
8.912874000E0,8.734674530E-1,-2.230646698E0,-8.179057188E0,8.522658421E0
8.922797000E0,8.126969752E-1,-2.255829486E0,-8.781758941E0,9.103215539E0
8.932720000E0,7.611613706E-1,-2.280298914E0,-9.522901127E0,9.821648316E0
8.942644000E0,7.131037630E-1,-2.283192409E0,-1.027083076E1,1.054568391E1
8.952567000E0,7.475135308E-1,-2.356455097E0,-1.080084811E1,1.108016142E1
8.962490000E0,7.948846753E-1,-2.539540775E0,-1.095167938E1,1.127033230E1
8.972413000E0,6.693423240E-1,-2.697430800E0,-1.057586363E1,1.093494598E1
8.982336000E0,5.284551246E-1,-2.777900475E0,-9.978093417E0,1.037103390E1
8.992260000E0,5.094359594E-1,-2.907784968E0,-9.436684517E0,9.887656602E0
9.002183000E0,5.168896610E-1,-3.009950151E0,-9.169491904E0,9.664706753E0
9.012106000E0,5.017935754E-1,-3.078804332E0,-9.294494850E0,9.804002623E0
9.022029000E0,4.548781483E-1,-3.133173497E0,-9.656455625E0,1.016222542E1
9.031952000E0,3.879577884E-1,-3.165061288E0,-9.909274027E0,1.040969913E1
9.041876000E0,3.940834777E-1,-3.130896884E0,-9.825110375E0,1.031942881E1
9.051799000E0,4.724329149E-1,-3.059795326E0,-9.440991576E0,9.935686299E0
9.061722000E0,4.771924023E-1,-2.932967172E0,-8.879706236E0,9.363716775E0
9.071645000E0,5.020315571E-1,-2.797613193E0,-8.386402963E0,8.854966399E0
9.081568000E0,5.461471181E-1,-2.655761788E0,-8.184472294E0,8.621886921E0
9.091491000E0,6.230728680E-1,-2.531056758E0,-8.156757077E0,8.563127590E0
9.101415000E0,6.282822986E-1,-2.453561854E0,-8.073272871E0,8.461231545E0
9.111338000E0,5.578333633E-1,-2.522681791E0,-7.695637465E0,8.117754459E0
9.121261000E0,5.253259872E-1,-2.586974266E0,-6.956502628E0,7.440519610E0
9.131184000E0,5.473817943E-1,-2.557077452E0,-6.126440665E0,6.661197126E0
9.141107000E0,5.521433647E-1,-2.520096444E0,-5.360967046E0,5.949429893E0
9.151031000E0,4.621321309E-1,-2.491530749E0,-4.577989202E0,5.232521067E0
9.160954000E0,3.753674175E-1,-2.471715120E0,-3.703567337E0,4.468409936E0
9.170877000E0,1.169175620E-1,-2.420651971E0,-2.512357362E0,3.490725597E0
9.180800000E0,-2.507669430E-1,-2.384521148E0,-7.238122076E-1,2.504541730E0
9.190723000E0,-4.338485641E-1,-2.377657394E0,1.128948823E0,2.667584058E0
9.200647000E0,-3.623882067E-1,-2.254993334E0,2.930860128E0,3.715677763E0
9.210570000E0,-2.360910164E-1,-2.139913114E0,4.961878206E0,5.408807857E0
9.220493000E0,-3.441287410E-1,-1.978882110E0,7.162001268E0,7.438323814E0
9.230416000E0,-6.449157268E-1,-1.655827685E0,9.380115629E0,9.546949818E0
9.240339000E0,-1.011876456E0,-1.184705533E0,1.176342143E1,1.186614954E1
9.250263000E0,-1.482847165E0,-1.309983298E0,1.429045940E1,1.442678487E1
9.260186000E0,-1.844671700E0,-1.269345149E0,1.689671895E1,1.704444666E1
9.270109000E0,-1.780766750E0,-6.085989627E-1,1.937944087E1,1.947059967E1
9.280032000E0,-1.355011828E0,8.150594696E-2,2.131029907E1,2.135349027E1
9.289955000E0,-9.308053958E-1,6.906517705E-1,2.212188792E1,2.215223067E1
9.299878000E0,-7.098671830E-1,1.287418015E0,2.186798311E1,2.191734568E1
9.309802000E0,-8.420923170E-1,1.830824909E0,2.084178741E1,2.093898616E1
9.319725000E0,-1.205010282E0,2.166668511E0,1.913870515E1,1.929861490E1
9.329648000E0,-1.122542102E0,2.266037848E0,1.691922839E1,1.710717153E1
9.339571000E0,-7.178501672E-1,1.895076161E0,1.439387559E1,1.453582736E1
9.349494000E0,-4.653538371E-1,1.233613399E0,1.207914535E1,1.215088921E1
9.359418000E0,-3.900986368E-1,6.688331777E-1,1.035871207E1,1.038760947E1
9.369341000E0,-3.230733925E-1,1.366747007E-1,9.005213211E0,9.012043130E0
9.379264000E0,-3.285225955E-1,-4.299679133E-1,7.801327642E0,7.820071130E0
9.389187000E0,-2.749091462E-1,-9.811308461E-1,6.690288255E0,6.767433022E0
9.399110000E0,-2.086319618E-1,-1.621913834E0,5.566169232E0,5.801411182E0
9.409034000E0,-2.253420251E-1,-2.142346433E0,4.368647187E0,4.870883443E0
9.418957000E0,-1.337196824E-1,-2.510188630E0,3.131650005E0,4.015738993E0
9.428880000E0,1.056136882E-2,-2.844150013E0,2.086053826E0,3.527169035E0
9.438803000E0,1.778028096E-1,-3.211528233E0,9.949668932E-1,3.366821431E0
9.448726000E0,3.671566111E-1,-3.489364240E0,-4.494485700E-1,3.537297103E0
9.458650000E0,3.739852088E-1,-3.663119808E0,-1.973522991E0,4.177691307E0
9.468573000E0,2.707405383E-1,-3.801075506E0,-3.302668199E0,5.042726710E0
9.478496000E0,2.379966423E-1,-3.801872189E0,-4.524081382E0,5.914235952E0
9.488419000E0,2.770365460E-1,-3.738917849E0,-5.739764879E0,6.855738968E0
9.498342000E0,4.158375685E-1,-3.694125546E0,-6.992372373E0,7.919138579E0
9.508265000E0,5.357748154E-1,-3.564151590E0,-8.125932895E0,8.889376616E0
9.518189000E0,7.163806158E-1,-3.317112576E0,-8.924686527E0,9.548113250E0
9.528112000E0,9.039311542E-1,-3.117819586E0,-9.265656967E0,9.817855648E0
9.538035000E0,1.006274604E0,-3.025617473E0,-9.414328272E0,9.939644183E0
9.547958000E0,9.683125068E-1,-2.967926505E0,-9.841226470E0,1.032453172E1
9.557881042E0,8.856131431E-1,-2.933986342E0,-1.036648653E1,1.081002449E1
9.567805042E0,8.709085652E-1,-2.901497457E0,-1.092974648E1,1.134180441E1
9.577728042E0,9.439636776E-1,-2.894536347E0,-1.139398967E1,1.179374447E1
9.587651042E0,9.585795240E-1,-2.913459691E0,-1.189008382E1,1.227930028E1
9.597574042E0,9.531356201E-1,-2.989802985E0,-1.220598900E1,1.260291858E1
9.607497042E0,9.290376364E-1,-3.004319283E0,-1.214979726E1,1.255016409E1
9.617421042E0,7.974877095E-1,-3.002386486E0,-1.178501052E1,1.218756679E1
9.627344042E0,6.201540110E-1,-3.066588914E0,-1.137830042E1,1.180060503E1
9.637267042E0,4.510835246E-1,-3.177804709E0,-1.114030705E1,1.159346196E1
9.647190042E0,2.142088716E-1,-3.306954500E0,-1.099025463E1,1.147900389E1
9.657113042E0,8.244113602E-2,-3.429132071E0,-1.082055089E1,1.135121425E1
9.667036042E0,7.284921728E-2,-3.515694837E0,-1.061299345E1,1.118038672E1
9.676960042E0,1.309915908E-1,-3.600434440E0,-1.035004767E1,1.095918673E1
9.686883042E0,1.419126548E-1,-3.673542177E0,-1.001207626E1,1.066567965E1
9.696806042E0,1.159303328E-1,-3.752328146E0,-9.619743297E0,1.032631916E1
9.706729042E0,7.306275029E-2,-3.831321106E0,-9.180461866E0,9.948127444E0
9.716652042E0,1.642555967E-2,-3.845054461E0,-8.471119178E0,9.302933609E0
9.726576042E0,3.114132039E-2,-3.771986485E0,-7.562346675E0,8.450913505E0
9.736499042E0,2.112675760E-1,-3.547030942E0,-6.739548708E0,7.618896199E0
9.746422042E0,2.586115310E-1,-3.437525457E0,-5.919843918E0,6.850402412E0
9.756345042E0,1.117049520E-1,-3.446492455E0,-4.963348780E0,6.043642887E0
9.766268042E0,-2.116472796E-2,-3.384859586E0,-3.783138587E0,5.076402262E0
9.776192042E0,-7.003772981E-2,-3.350983742E0,-2.271282508E0,4.048792604E0
9.786115042E0,-1.341656788E-1,-3.345058758E0,-2.522535610E-1,3.357238506E0
9.796038042E0,-3.284211097E-1,-3.295192241E0,2.166543088E0,3.957279531E0
9.805961042E0,-4.788442407E-1,-3.143673050E0,4.613584127E0,5.603314247E0
9.815884042E0,-6.245356221E-1,-3.045797092E0,7.215275835E0,7.856661507E0
9.825808042E0,-8.765161912E-1,-2.859382594E0,1.008504601E1,1.051914932E1
9.835731042E0,-1.234118452E0,-2.571641112E0,1.312982101E1,1.343609266E1
9.845654042E0,-1.472828546E0,-2.341624074E0,1.624704301E1,1.648086265E1
9.855577042E0,-1.446874948E0,-1.623918259E0,1.904368439E1,1.916748478E1
9.865500042E0,-1.148029750E0,-5.502963755E-1,2.152556548E1,2.156318083E1
9.875423042E0,-8.084420295E-1,2.379179424E-1,2.276731996E1,2.278291117E1
9.885347042E0,-5.216041248E-1,1.112868542E0,2.272163215E1,2.275484816E1
9.895270042E0,-3.697647616E-1,1.981125248E0,2.190897443E1,2.200147140E1
9.905193042E0,-4.209981383E-1,2.298905778E0,2.048431203E1,2.061720753E1
9.915116042E0,-6.651971597E-1,2.319632111E0,1.876545867E1,1.891997937E1
9.925039042E0,-8.515681686E-1,2.393268875E0,1.708221017E1,1.727005526E1
9.934963042E0,-7.886401413E-1,2.109938240E0,1.541334934E1,1.557707066E1
9.944886042E0,-6.372050035E-1,1.363491168E0,1.356346572E1,1.364671172E1
9.954809042E0,-5.735932175E-1,5.598767459E-1,1.174721061E1,1.177452455E1
9.964732042E0,-4.815559601E-1,-2.478970199E-1,1.025212669E1,1.026642346E1
9.974655042E0,-4.364075249E-1,-1.023312294E0,9.149915426E0,9.217297429E0
9.984579042E0,-3.712111070E-1,-1.692166814E0,8.205101271E0,8.385995056E0
9.994502042E0,-1.478760839E-1,-2.237331820E0,7.097072616E0,7.442846279E0
1.000442504E1,6.991418911E-2,-2.609055106E0,5.777458954E0,6.339644194E0
1.001434804E1,1.922430569E-1,-2.954805061E0,4.380738060E0,5.287598348E0
1.002427104E1,2.347134124E-1,-3.298064101E0,3.020348255E0,4.478260911E0
1.003419404E1,2.180950774E-1,-3.548600335E0,1.548905207E0,3.878045531E0
1.004411804E1,2.011312815E-1,-3.719139057E0,-3.130014539E-2,3.724705199E0
1.005404104E1,2.047300783E-1,-3.767663346E0,-1.598985440E0,4.098042939E0
1.006396404E1,2.904499491E-1,-3.734093896E0,-3.077246926E0,4.847397966E0
1.007388704E1,4.377385705E-1,-3.645361229E0,-4.300517185E0,5.654619492E0
1.008381004E1,5.759765426E-1,-3.536745982E0,-5.475553177E0,6.543852361E0
1.009373404E1,6.340875605E-1,-3.429071845E0,-6.543696220E0,7.414887792E0
1.010365704E1,6.910783249E-1,-3.264510147E0,-7.511895145E0,8.219682744E0
1.011358004E1,7.410405900E-1,-3.119957913E0,-8.217579814E0,8.821105176E0
1.012350304E1,8.229848588E-1,-3.012524096E0,-8.667196784E0,9.212649217E0
1.013342604E1,8.345960404E-1,-2.896427337E0,-9.007029356E0,9.498021883E0
1.014335004E1,7.724244236E-1,-2.861421518E0,-9.523541397E0,9.974077067E0
1.015327304E1,6.418188952E-1,-2.912369185E0,-1.022439334E1,1.065044811E1
1.016319604E1,4.674507217E-1,-2.973912884E0,-1.080321507E1,1.121481715E1
1.017311904E1,4.163466417E-1,-2.989902388E0,-1.105375890E1,1.145855343E1
1.018304204E1,5.541859068E-1,-2.987104203E0,-1.121300548E1,1.161728908E1
1.019296604E1,6.653039445E-1,-3.011069601E0,-1.133275763E1,1.174481013E1
1.020288904E1,7.057463577E-1,-3.071003269E0,-1.115471459E1,1.159123792E1
1.021281204E1,7.150690122E-1,-3.108103852E0,-1.089806860E1,1.135515444E1
1.022273504E1,6.884242006E-1,-3.136419871E0,-1.080972653E1,1.127657949E1
1.023265804E1,6.867421760E-1,-3.178617180E0,-1.092895008E1,1.140250727E1
1.024258104E1,6.425552789E-1,-3.195034407E0,-1.103598337E1,1.150713044E1
1.025250504E1,6.135218067E-1,-3.104777371E0,-1.077449588E1,1.122968446E1
1.026242804E1,6.657391235E-1,-2.978871323E0,-1.021797661E1,1.066414220E1
1.027235104E1,7.306655829E-1,-2.883720752E0,-9.781000149E0,1.022338894E1
1.028227404E1,7.261440772E-1,-2.741230539E0,-9.662005218E0,1.006955684E1
1.029219704E1,5.938637966E-1,-2.667903531E0,-9.741904496E0,1.011805746E1
1.030212104E1,3.343280401E-1,-2.748830165E0,-9.878788984E0,1.025954747E1
1.031204404E1,7.466993060E-2,-2.854426787E0,-9.607010400E0,1.002237381E1
1.032196704E1,-6.917851802E-2,-2.817507467E0,-8.579352894E0,9.030416938E0
1.033189004E1,2.390853390E-2,-2.684423377E0,-7.078184940E0,7.570165291E0
1.034181304E1,2.035387812E-1,-2.574212133E0,-5.544110611E0,6.115975687E0
1.035173704E1,1.839510838E-1,-2.442844054E0,-4.108702784E0,4.783593172E0
1.036166004E1,9.517973386E-2,-2.377907070E0,-3.126015628E0,3.928800698E0
1.037158304E1,-5.476991884E-2,-2.635799686E0,-2.576904776E0,3.686580794E0
1.038150604E1,-4.448530605E-1,-3.014191137E0,-1.682095424E0,3.480328644E0
1.039142904E1,-9.023539408E-1,-3.266648181E0,3.743428391E-1,3.409599028E0
1.040135304E1,-1.276912615E0,-3.720150626E0,3.338901640E0,5.159291683E0
1.041127604E1,-1.700287866E0,-3.352151138E0,7.239110255E0,8.156752624E0
1.042119904E1,-1.728606370E0,-2.804626636E0,1.116468877E1,1.164063082E1
1.043112204E1,-1.499116166E0,-2.394155897E0,1.372357652E1,1.401127704E1
1.044104504E1,-1.353907874E0,-1.839700398E0,1.474905652E1,1.492488634E1
1.045096804E1,-1.334209628E0,-1.154558385E0,1.502081873E1,1.512409058E1
1.046089204E1,-1.350590018E0,-3.087180761E-1,1.549709784E1,1.555890233E1
1.047081504E1,-1.272374299E0,5.143044973E-1,1.634775194E1,1.640525644E1
1.048073804E1,-1.248704478E0,1.130354640E0,1.704453072E1,1.712755067E1
1.049066104E1,-1.400456681E0,1.686749369E0,1.720526834E1,1.734438413E1
1.050058404E1,-1.432474864E0,2.119215871E0,1.663229032E1,1.682783829E1
1.051050804E1,-1.235806105E0,2.293339375E0,1.551129020E1,1.572853286E1
1.052043104E1,-9.980188474E-1,2.315367005E0,1.419087430E1,1.441311484E1
1.053035404E1,-8.426681216E-1,2.114967722E0,1.315307889E1,1.334865770E1
1.054027704E1,-9.193906076E-1,1.706388412E0,1.261103849E1,1.275912741E1
1.055020004E1,-1.055626274E0,1.145416775E0,1.216862880E1,1.226791968E1
1.056012413E1,-1.043067112E0,4.768014794E-1,1.161271296E1,1.166920867E1
1.057004712E1,-9.325377066E-1,-1.279771319E-1,1.077561855E1,1.081665197E1
1.057997012E1,-7.479798462E-1,-6.828683956E-1,9.563284337E0,9.616766110E0
1.058989312E1,-6.898436853E-1,-1.198784678E0,8.198446555E0,8.314294614E0
1.059981613E1,-6.388356458E-1,-1.495746269E0,6.822248803E0,7.013447555E0
1.060974013E1,-3.984140718E-1,-1.674214839E0,5.376682023E0,5.645390923E0
1.061966313E1,-2.867040583E-1,-1.932224692E0,3.884513519E0,4.348003766E0
1.062958613E1,-2.822006242E-1,-2.087828894E0,2.492928818E0,3.263948648E0
1.063950913E1,-2.347684311E-1,-2.105855714E0,1.278698355E0,2.474836153E0
1.064943213E1,-1.623108310E-1,-2.287327121E0,-1.148100793E-2,2.293107494E0
1.065935513E1,-1.013730955E-1,-2.405776508E0,-1.193014426E0,2.687251483E0
1.066927913E1,-1.575093716E-5,-2.441268668E0,-2.232120196E0,3.307892574E0
1.067920213E1,1.633002713E-1,-2.497870885E0,-3.340989096E0,4.174713652E0
1.068912513E1,3.909705297E-1,-2.464540586E0,-4.457204438E0,5.108178703E0
1.069904813E1,6.260749016E-1,-2.386407752E0,-5.497303065E0,6.025549994E0
1.070897113E1,7.541181801E-1,-2.376066659E0,-6.376521401E0,6.846489040E0
1.071889513E1,7.217607120E-1,-2.409543723E0,-7.150617909E0,7.580117146E0
1.072881813E1,6.416234520E-1,-2.432663029E0,-7.940710060E0,8.329730267E0
1.073874113E1,6.724667106E-1,-2.438776585E0,-8.608019453E0,8.972058940E0
1.074866412E1,7.443663400E-1,-2.475605273E0,-9.014466430E0,9.377809325E0
1.075858712E1,7.889384955E-1,-2.522911879E0,-9.209400905E0,9.581261573E0
1.076851113E1,8.401798390E-1,-2.568922741E0,-9.304246252E0,9.688873233E0
1.077843413E1,8.463296480E-1,-2.590547499E0,-9.302361109E0,9.693355065E0
1.078835713E1,8.259607261E-1,-2.654869795E0,-9.376389198E0,9.779939629E0
1.079828013E1,8.442522785E-1,-2.718328749E0,-9.525416599E0,9.941611262E0
1.080820313E1,8.985974702E-1,-2.768276542E0,-9.629411668E0,1.005964222E1
1.081812613E1,9.459144549E-1,-2.811688610E0,-9.742329004E0,1.018397375E1
1.082805013E1,9.807946312E-1,-2.820664963E0,-9.880020407E0,1.032147820E1
1.083797313E1,1.075508269E0,-2.802147416E0,-9.965318420E0,1.040751264E1
1.084789613E1,1.092926028E0,-2.778769663E0,-9.977791700E0,1.041500722E1
1.085781913E1,1.019842410E0,-2.725848853E0,-9.979075749E0,1.039482002E1
1.086774213E1,8.653234510E-1,-2.651360004E0,-9.932861695E0,1.031698774E1
1.087766613E1,5.825600323E-1,-2.930864221E0,-9.837763749E0,1.028158241E1
1.088758913E1,3.101908069E-1,-2.998083812E0,-9.562718326E0,1.002648027E1
1.089751213E1,8.289071381E-2,-2.944059632E0,-8.863353328E0,9.339881702E0
1.090743513E1,-2.300488327E-2,-3.150759875E0,-7.856604295E0,8.464871414E0
1.091735813E1,-1.056708813E-2,-3.287113728E0,-6.788891607E0,7.542829547E0
1.092728212E1,4.397672620E-2,-3.132886399E0,-6.053968520E0,6.816703454E0
1.093720512E1,3.201646585E-2,-2.875962374E0,-5.826683155E0,6.497878209E0
1.094712813E1,-2.467923347E-2,-2.722940156E0,-5.593400300E0,6.221023957E0
1.095705113E1,-1.258650445E-1,-2.566564559E0,-5.031147246E0,5.649383883E0
1.096697413E1,-2.425941435E-1,-2.400122835E0,-4.036220114E0,4.702181871E0
1.097689813E1,-2.960083488E-1,-2.366549000E0,-2.632433444E0,3.552165670E0
1.098682113E1,-1.123657422E-1,-2.338844453E0,-1.254236528E0,2.656299815E0
1.099674413E1,1.313694306E-1,-2.200814496E0,-3.194240355E-1,2.227750903E0
1.100666713E1,1.616086353E-1,-1.936739327E0,5.079312515E-1,2.008748547E0
1.101659013E1,5.556024313E-2,-1.552699027E0,1.729264913E0,2.324718982E0
1.102651313E1,-4.215531852E-2,-1.270882674E0,3.482981712E0,3.707840537E0
1.103643713E1,-9.395116076E-2,-1.195918154E0,5.927064645E0,6.047242541E0
1.104636013E1,-2.978510989E-1,-1.074894530E0,8.872725245E0,8.942559298E0
1.105628313E1,-6.632390003E-1,-8.608237993E-1,1.174475712E1,1.179492363E1
1.106620613E1,-1.056754202E0,-7.009352687E-1,1.403819531E1,1.409535269E1
1.107612913E1,-1.431406578E0,-6.380706838E-1,1.594851692E1,1.602533154E1
1.108605313E1,-1.785240893E0,-5.062411138E-1,1.782885050E1,1.792515760E1
1.109597613E1,-2.171377858E0,-3.205839770E-1,1.972640061E1,1.984813687E1
1.110589912E1,-2.506241759E0,9.897581935E-3,2.147436726E1,2.162012477E1
1.111582212E1,-2.587991681E0,5.300079989E-1,2.252780163E1,2.268216162E1
1.112574512E1,-2.349890136E0,1.106680579E0,2.229048420E1,2.244131038E1
1.113566913E1,-1.891814584E0,1.488505370E0,2.053004193E1,2.067068534E1
1.114559213E1,-1.416434051E0,1.428499927E0,1.756488262E1,1.767970585E1
1.115551513E1,-1.140936785E0,9.881611727E-1,1.452025497E1,1.459849320E1
1.116543813E1,-9.838470970E-1,4.230145506E-1,1.206668844E1,1.211411847E1
1.117536113E1,-8.810605741E-1,-1.396154299E-1,1.048444124E1,1.052232238E1
1.118528513E1,-7.780603355E-1,-7.925422076E-1,9.490197650E0,9.554964807E0
1.119520813E1,-6.472323936E-1,-1.552458706E0,8.711943771E0,8.872823794E0
1.120513113E1,-5.457501287E-1,-2.168590198E0,7.900461920E0,8.210841931E0
1.121505413E1,-5.922660083E-1,-2.630377270E0,6.823641025E0,7.337011684E0
1.122497713E1,-6.117727948E-1,-2.977051085E0,5.687986615E0,6.449053484E0
1.123490013E1,-5.250799290E-1,-3.355281153E0,4.369654663E0,5.534211996E0
1.124482413E1,-3.457126420E-1,-3.590050955E0,2.486106287E0,4.380491703E0
1.125474713E1,-3.852943086E-1,-3.792533308E0,2.932823038E-1,3.823319907E0
1.126467013E1,-4.409435756E-1,-3.893196634E0,-1.583823609E0,4.226098496E0
1.127459313E1,-2.969551410E-1,-3.845637136E0,-3.101559064E0,4.949421781E0
1.128451612E1,-8.990556361E-2,-3.791946833E0,-4.477390780E0,5.868046693E0
1.129444012E1,1.145615361E-1,-3.743852022E0,-5.685342504E0,6.808279643E0
1.130436313E1,2.988414710E-1,-3.665385604E0,-6.709315095E0,7.651095797E0
1.131428613E1,4.601399480E-1,-3.612646935E0,-7.574349840E0,8.404387077E0
1.132420913E1,5.193266708E-1,-3.556079216E0,-8.323750632E0,9.066433928E0
1.133413213E1,5.216615737E-1,-3.466264522E0,-9.020470936E0,9.677603858E0
1.134405613E1,5.970750508E-1,-3.366345839E0,-9.635805598E0,1.022435976E1
1.135397913E1,6.389927897E-1,-3.279333423E0,-1.021765267E1,1.075001235E1
1.136390213E1,5.304711715E-1,-3.221557962E0,-1.077257800E1,1.125647689E1
1.137382513E1,4.502469342E-1,-3.182941781E0,-1.127320608E1,1.172258572E1
1.138374813E1,5.003775991E-1,-3.181822039E0,-1.168083653E1,1.211677809E1
1.139367213E1,5.987783448E-1,-3.232536402E0,-1.210092740E1,1.253954828E1
1.140359513E1,6.091168068E-1,-3.330464693E0,-1.254777045E1,1.299652113E1
1.141351813E1,6.029553764E-1,-3.467326084E0,-1.288048170E1,1.335262948E1
1.142344113E1,6.176374425E-1,-3.577435002E0,-1.297084223E1,1.346930827E1
1.143336413E1,6.679609924E-1,-3.674558716E0,-1.281285865E1,1.334608184E1
1.144328713E1,6.537187099E-1,-3.752773411E0,-1.247705773E1,1.304559796E1
1.145321112E1,5.595576707E-1,-3.822978298E0,-1.209221505E1,1.269448434E1
1.146313412E1,4.436825941E-1,-3.868682182E0,-1.179136645E1,1.241772438E1
1.147305712E1,3.776219577E-1,-3.902781682E0,-1.158648937E1,1.223196791E1
1.148298013E1,3.203463242E-1,-3.896381905E0,-1.150594046E1,1.215199900E1
1.149290313E1,2.198851659E-1,-3.822165243E0,-1.142150316E1,1.204607949E1
1.150282713E1,4.860231232E-2,-3.728648677E0,-1.119763198E1,1.180220933E1
1.151275013E1,-5.916048344E-2,-3.648237182E0,-1.067754086E1,1.128374997E1
1.152267313E1,-4.687657971E-2,-3.636377567E0,-9.846721684E0,1.049682653E1
1.153259613E1,6.501221241E-2,-3.607738782E0,-8.827190053E0,9.536209411E0
1.154251913E1,2.370986196E-1,-3.480785205E0,-7.794587556E0,8.539770288E0
1.155244313E1,3.758440021E-1,-3.379080198E0,-6.806104640E0,7.608055078E0
1.156236587E1,4.093591459E-1,-3.374654440E0,-5.908671643E0,6.816763755E0
1.157228888E1,1.341594296E-1,-3.575501620E0,-4.862735156E0,6.037251343E0
1.158221188E1,-5.007916550E-1,-3.938923030E0,-3.078917475E0,5.024503929E0
1.159213488E1,-1.141704890E0,-4.441384796E0,-1.817571902E-1,4.589381727E0
1.160205888E1,-1.503050026E0,-4.652362569E0,4.044672264E0,6.345314065E0
1.161198188E1,-1.703090729E0,-4.289508047E0,8.598277407E0,9.758625502E0
1.162190488E1,-1.545922250E0,-3.557948279E0,1.228427503E1,1.288224688E1
1.163182788E1,-9.500405426E-1,-2.742885301E0,1.447294281E1,1.476116765E1
1.164175088E1,-4.790828437E-1,-2.283314908E0,1.546065565E1,1.563569380E1
1.165167388E1,-6.658745597E-1,-2.026610154E0,1.652128678E1,1.665843493E1
1.166159788E1,-1.274018536E0,-1.412943264E0,1.831582299E1,1.841436677E1
1.167152088E1,-1.662340021E0,-3.598911533E-1,2.033208094E1,2.040309808E1
1.168144388E1,-1.607299888E0,7.390028353E-1,2.158494279E1,2.165731500E1
1.169136688E1,-1.386336824E0,1.646177879E0,2.164854178E1,2.175525667E1
1.170128988E1,-1.306874333E0,2.243348020E0,2.066860925E1,2.083103308E1
1.171121388E1,-1.393678150E0,2.459241840E0,1.914829810E1,1.935581383E1
1.172113687E1,-1.431216836E0,2.355519104E0,1.758758151E1,1.780224355E1
1.173105987E1,-1.397615372E0,2.008955656E0,1.596843020E1,1.615487526E1
1.174098287E1,-1.428130383E0,1.406919316E0,1.432378970E1,1.446339966E1
1.175090588E1,-1.365080587E0,6.721608281E-1,1.305766753E1,1.314602322E1
1.176082988E1,-1.295873966E0,-6.225303926E-2,1.232205506E1,1.239016568E1
1.177075288E1,-1.288567578E0,-7.760996910E-1,1.176830386E1,1.186405128E1
1.178067588E1,-1.168236484E0,-1.398540110E0,1.094515974E1,1.109581960E1
1.179059888E1,-9.762128992E-1,-1.942828325E0,9.716605348E0,9.956906799E0
1.180052188E1,-6.708964408E-1,-2.516979294E0,8.174537290E0,8.579530681E0
1.181044588E1,-4.488452835E-1,-2.972659534E0,6.534260568E0,7.192685727E0
1.182036888E1,-3.434722083E-1,-3.297566796E0,4.676037653E0,5.732124219E0
1.183029188E1,-2.495425178E-1,-3.551200592E0,2.725387216E0,4.483417512E0
1.184021488E1,-2.608042734E-2,-3.580617349E0,9.157938391E-1,3.695967958E0
1.185013788E1,1.844780276E-1,-3.459575600E0,-5.758788210E-1,3.512026750E0
1.186006188E1,2.602817881E-1,-3.422150788E0,-2.060215564E0,4.002917786E0
1.186998488E1,2.858723467E-1,-3.392170067E0,-3.654044929E0,4.994054976E0
1.187990788E1,3.340374700E-1,-3.303820393E0,-5.199625409E0,6.169514942E0
1.188983088E1,3.622841263E-1,-3.204539349E0,-6.521507206E0,7.275326691E0
1.189975388E1,4.461376938E-1,-3.123936358E0,-7.443070493E0,8.084387149E0
1.190967687E1,5.457708864E-1,-3.089545959E0,-7.814558136E0,8.420836001E0
1.191960088E1,5.976519152E-1,-3.112420559E0,-8.058147878E0,8.658989362E0
1.192952388E1,6.179473449E-1,-3.147362935E0,-8.359199377E0,8.953433230E0
1.193944688E1,7.299047870E-1,-3.220644627E0,-8.729411743E0,9.333163569E0
1.194936988E1,8.790819494E-1,-3.280287396E0,-9.283649434E0,9.885303096E0
1.195929288E1,1.046527714E0,-3.325964383E0,-1.009260763E1,1.067792059E1
1.196921688E1,1.201144833E0,-3.423872501E0,-1.118894185E1,1.176257079E1
1.197913988E1,1.340320260E0,-3.539354133E0,-1.223241958E1,1.280451385E1
1.198906288E1,1.480905743E0,-3.630674193E0,-1.282249954E1,1.340863048E1
1.199898588E1,1.602490114E0,-3.637198808E0,-1.282862157E1,1.343021672E1
1.200890888E1,1.614277955E0,-3.642248464E0,-1.247357747E1,1.309435000E1
1.201883288E1,1.494130099E0,-3.738826925E0,-1.202492529E1,1.268109143E1
1.202875588E1,1.351785188E0,-3.837124175E0,-1.162603292E1,1.231728405E1
1.203867888E1,1.347187084E0,-3.848861876E0,-1.133761316E1,1.204865647E1
1.204860188E1,1.326776501E0,-3.900583714E0,-1.116040042E1,1.189661409E1
1.205852488E1,1.092842413E0,-4.008925311E0,-1.098639547E1,1.174592151E1
1.206844788E1,7.240677309E-1,-4.034136166E0,-1.065677389E1,1.141776504E1
1.207837187E1,4.884209201E-1,-4.043937561E0,-1.016033476E1,1.094643268E1
1.208829487E1,2.613047402E-1,-3.996131018E0,-9.475849752E0,1.028732578E1
1.209821787E1,-1.417564976E-1,-3.994285930E0,-8.995653014E0,9.843586142E0
1.210814088E1,-4.860688411E-1,-4.193138624E0,-8.624091695E0,9.601751507E0
1.211806388E1,-8.670369776E-1,-4.324125318E0,-8.074532946E0,9.200429076E0
1.212798788E1,-9.114722351E-1,-4.198240612E0,-7.303425534E0,8.473253827E0
1.213791088E1,-6.587708504E-1,-4.056611986E0,-6.237864622E0,7.470009028E0
1.214783388E1,-3.344116918E-1,-3.726931057E0,-4.997346246E0,6.243021367E0
1.215775688E1,-3.520539565E-2,-3.371040861E0,-3.817260014E0,5.092801775E0
1.216767988E1,2.278646784E-1,-3.170129362E0,-2.879747862E0,4.288891492E0
1.217760388E1,3.650854177E-1,-2.846422825E0,-1.996970910E0,3.496184074E0
1.218752688E1,1.674456183E-1,-2.475029614E0,-7.382361192E-1,2.588204434E0
1.219744988E1,-1.526097886E-1,-2.419382540E0,1.124171648E0,2.672164575E0
1.220737288E1,-2.811901888E-1,-2.263502203E0,3.579429195E0,4.244387294E0
1.221729588E1,-2.097781623E-1,-1.865757929E0,6.540926394E0,6.805055299E0
1.222721988E1,-9.497372914E-2,-1.487777099E0,9.708471871E0,9.822266886E0
1.223714288E1,-2.142869685E-1,-1.220394014E0,1.263342397E1,1.269404119E1
1.224706588E1,-5.793571834E-1,-9.847787046E-1,1.511376607E1,1.515689179E1
1.225698887E1,-1.034201345E0,-7.206968842E-1,1.729799582E1,1.734386450E1
1.226691187E1,-1.500432082E0,-3.903417713E-1,1.927663512E1,1.933888117E1
1.227683487E1,-1.897718810E0,7.409416258E-2,2.074240579E1,2.082916764E1
1.228675888E1,-1.908078907E0,5.772809833E-1,2.145859849E1,2.155099690E1
1.229668188E1,-1.701017891E0,1.021914517E0,2.163936867E1,2.173016446E1
1.230660488E1,-1.799950441E0,1.321486086E0,2.129375145E1,2.141051138E1
1.231652788E1,-2.056610317E0,1.446503942E0,2.020567115E1,2.036151189E1
1.232645088E1,-2.123722320E0,1.307663269E0,1.846521116E1,1.863287962E1
1.233637488E1,-2.045855680E0,8.078812084E-1,1.628321856E1,1.643111086E1
1.234629788E1,-1.906352955E0,2.280273040E-1,1.428158566E1,1.441006132E1
1.235622088E1,-1.544435741E0,-3.745844753E-1,1.285838741E1,1.295622329E1
1.236614388E1,-1.252261777E0,-7.861941049E-1,1.171016967E1,1.180314934E1
1.237606688E1,-1.132101934E0,-1.186238673E0,1.026009176E1,1.039029836E1
1.238599088E1,-1.237065449E0,-1.694099027E0,8.673615273E0,8.923671012E0
1.239591388E1,-1.207874394E0,-2.071424823E0,7.106480201E0,7.500121479E0
1.240583688E1,-9.559662572E-1,-2.351698972E0,5.721957768E0,6.259805128E0
1.241575988E1,-7.002079482E-1,-2.424346680E0,4.757032700E0,5.384896294E0
1.242568288E1,-4.289450160E-1,-2.535757919E0,3.869295555E0,4.646020894E0
1.243560687E1,-1.495948363E-1,-2.762871376E0,2.536374215E0,3.753535802E0
1.244552987E1,4.976338662E-2,-3.050299740E0,7.095596194E-1,3.132136611E0
1.245545288E1,2.185234224E-1,-3.250951331E0,-1.181083767E0,3.465746082E0
1.246537588E1,4.715781616E-1,-3.502409670E0,-2.678638726E0,4.434452039E0
1.247529888E1,7.299332922E-1,-3.577802792E0,-3.706727757E0,5.203201524E0
1.248522288E1,8.512095881E-1,-3.423654107E0,-4.226139432E0,5.505108510E0
1.249514588E1,9.749504122E-1,-3.512625048E0,-4.630996551E0,5.893656937E0
1.250506888E1,9.578085686E-1,-3.741375726E0,-5.237248734E0,6.507231660E0
1.251499188E1,8.719331436E-1,-3.844763854E0,-5.834750558E0,7.041788876E0
1.252491488E1,8.091053961E-1,-3.837403964E0,-6.572002006E0,7.653203976E0
1.253483788E1,6.885222146E-1,-3.750879206E0,-7.524502911E0,8.435715839E0
1.254476188E1,6.666391562E-1,-3.820544687E0,-8.677338195E0,9.504586662E0
1.255468525E1,6.473553313E-1,-3.943122208E0,-9.943868494E0,1.071670669E1
1.256460825E1,7.073675714E-1,-3.783092686E0,-1.087632280E1,1.153718150E1
1.257453125E1,8.358941954E-1,-3.682168867E0,-1.149805841E1,1.210216650E1
1.258445425E1,8.241275509E-1,-3.705162458E0,-1.182918039E1,1.242324127E1
1.259437825E1,8.313950553E-1,-3.880629798E0,-1.219514241E1,1.282466389E1
1.260430125E1,8.022643000E-1,-3.915108782E0,-1.241574851E1,1.304310223E1
1.261422425E1,8.150925064E-1,-3.706119355E0,-1.244781931E1,1.301337397E1
1.262414725E1,8.353805175E-1,-3.826169124E0,-1.265779634E1,1.324980147E1
1.263407025E1,7.479211548E-1,-3.946303678E0,-1.301224870E1,1.361805107E1
1.264399425E1,7.354997684E-1,-3.903069658E0,-1.320542550E1,1.378978518E1
1.265391725E1,6.749840100E-1,-3.991846763E0,-1.333287726E1,1.393398938E1
1.266384025E1,5.284656496E-1,-4.118843610E0,-1.340827126E1,1.403659100E1
1.267376325E1,3.530712533E-1,-4.220103351E0,-1.341546685E1,1.406800207E1
1.268368625E1,2.942997193E-1,-4.301358599E0,-1.326095183E1,1.394421535E1
1.269361025E1,2.624788794E-1,-4.359755327E0,-1.293622087E1,1.365365050E1
1.270353325E1,1.925636122E-1,-4.370038532E0,-1.249276803E1,1.323644856E1
1.271345625E1,1.752800833E-1,-4.338269148E0,-1.196598419E1,1.272933933E1
1.272337925E1,2.103702477E-1,-4.354251050E0,-1.128895730E1,1.210141789E1
1.273330225E1,2.513823624E-1,-4.436059737E0,-1.041102126E1,1.131950453E1
1.274322525E1,2.745972338E-1,-4.453209912E0,-9.509312198E0,1.050397547E1
1.275314925E1,3.576194004E-1,-4.449705384E0,-8.332305109E0,9.452781499E0
1.276307225E1,4.660742872E-1,-4.514518846E0,-6.461018929E0,7.895750202E0
1.277299525E1,6.736372501E-1,-4.713577362E0,-4.048516808E0,6.249966963E0
1.278291825E1,6.811335267E-1,-5.011629825E0,-1.409692358E0,5.250486542E0
1.279284125E1,4.223224595E-1,-5.112375011E0,1.290291629E0,5.289573424E0
1.280276525E1,6.486787755E-2,-4.987993625E0,4.129419469E0,6.475831483E0
1.281268825E1,-2.295065400E-1,-4.425082174E0,6.940364898E0,8.234238909E0
1.282261125E1,-3.614475724E-1,-3.844127677E0,9.168783222E0,9.948595263E0
1.283253425E1,-4.668138138E-1,-3.449012020E0,1.094344299E1,1.148357713E1
1.284245725E1,-7.922203915E-1,-3.021737261E0,1.278235255E1,1.315853510E1
1.285238125E1,-1.132320912E0,-2.337619462E0,1.492146986E1,1.514585350E1
1.286230425E1,-1.084891223E0,-1.427564811E0,1.728941795E1,1.738214324E1
1.287222725E1,-9.544669580E-1,-5.543158977E-1,1.961432118E1,1.964535235E1
1.288215025E1,-9.541401717E-1,3.202556558E-1,2.144503529E1,2.146863959E1
1.289207325E1,-1.135893415E0,1.129056704E0,2.240793137E1,2.246509317E1
1.290199725E1,-1.532632698E0,1.833888850E0,2.250196630E1,2.262853505E1
1.291192025E1,-1.841864160E0,1.915854534E0,2.213626740E1,2.229523035E1
1.292184325E1,-1.995252560E0,1.831258188E0,2.168377243E1,2.185224304E1
1.293176625E1,-1.896373658E0,1.898543414E0,2.116873330E1,2.133813416E1
1.294168925E1,-1.514435871E0,1.740818718E0,2.026739202E1,2.039831231E1
1.295161225E1,-1.228472819E0,1.283226439E0,1.863901029E1,1.872347511E1
1.296153625E1,-1.064769199E0,5.718724550E-1,1.632524601E1,1.636992452E1
1.297145925E1,-1.008751192E0,-4.046643799E-1,1.408693419E1,1.412880205E1
1.298138225E1,-9.376707579E-1,-1.066906430E0,1.271990195E1,1.279896173E1
1.299130525E1,-7.239631388E-1,-1.866132005E0,1.193284217E1,1.209955757E1
1.300122825E1,-5.510541746E-1,-2.718158011E0,1.071891693E1,1.107191148E1
1.301115225E1,-6.261882645E-1,-3.412864533E0,8.987256412E0,9.633822392E0
1.302107525E1,-6.593841503E-1,-3.934200819E0,7.051865453E0,8.101946057E0
1.303099825E1,-3.672940937E-1,-4.249937600E0,4.983897650E0,6.560191334E0
1.304092125E1,-5.549661811E-2,-4.555184769E0,2.778689849E0,5.336094586E0
1.305084425E1,8.820563184E-2,-4.684994126E0,7.070552570E-1,4.738868781E0
1.306076825E1,9.299939850E-2,-4.636726238E0,-1.140879482E0,4.775927667E0
1.307069125E1,9.272836179E-2,-4.564844954E0,-2.961667938E0,5.442231617E0
1.308061425E1,4.314952791E-3,-4.577852085E0,-4.697058393E0,6.558895172E0
1.309053725E1,-7.393160999E-2,-4.613700487E0,-6.092035648E0,7.642289998E0
1.310046025E1,1.972697072E-2,-4.527830909E0,-7.309328883E0,8.598135299E0
1.311038425E1,2.652226853E-1,-4.347776136E0,-8.403089163E0,9.464956834E0
1.312030725E1,5.416828421E-1,-4.203419783E0,-9.321648735E0,1.023988737E1
1.313023025E1,8.157033943E-1,-4.103618045E0,-1.019586595E1,1.102092262E1
1.314015325E1,9.498548935E-1,-3.995132022E0,-1.094907035E1,1.169382084E1
1.315007625E1,8.902168753E-1,-3.810250956E0,-1.155404667E1,1.219862668E1
1.316000025E1,9.899786335E-1,-3.692613456E0,-1.206099559E1,1.265239371E1
1.316992325E1,1.129259018E0,-3.659260646E0,-1.250128859E1,1.307469429E1
1.317984625E1,1.221075141E0,-3.583554990E0,-1.290920205E1,1.345289517E1
1.318976925E1,1.147763409E0,-3.536782235E0,-1.332037826E1,1.382963001E1
1.319969225E1,9.132603867E-1,-3.578795649E0,-1.358749310E1,1.408054657E1
1.320961525E1,6.673272273E-1,-3.627859636E0,-1.365058807E1,1.414019963E1
1.321953925E1,4.578622383E-1,-3.605764177E0,-1.353865482E1,1.401807217E1
1.322946225E1,2.630030092E-1,-3.609421026E0,-1.338286862E1,1.386355882E1
1.323938525E1,9.255316459E-2,-3.527323194E0,-1.325105367E1,1.371280417E1
1.324930825E1,-5.442953780E-3,-3.629994746E0,-1.329253732E1,1.377927574E1
1.325923125E1,-4.985548027E-2,-3.592484858E0,-1.352698845E1,1.399599406E1
1.326915525E1,-2.278810506E-1,-3.668550702E0,-1.371062377E1,1.419476657E1
1.327907825E1,-3.941553985E-1,-3.904968249E0,-1.383593194E1,1.438183396E1
1.328900125E1,-3.238325072E-1,-3.886453333E0,-1.356258162E1,1.411215814E1
1.329892425E1,-1.599212019E-1,-3.914322624E0,-1.303499203E1,1.361097034E1
1.330884725E1,-7.161932856E-2,-4.119649941E0,-1.230811179E1,1.297945534E1
1.331877125E1,1.843173936E-2,-4.297781273E0,-1.124657435E1,1.203979643E1
1.332869425E1,1.577439546E-1,-4.408375802E0,-9.778188223E0,1.072714432E1
1.333861725E1,2.080515891E-1,-4.543742060E0,-8.048509912E0,9.244857445E0
1.334854025E1,1.659308971E-1,-4.602723217E0,-6.235435688E0,7.751983765E0
1.335846325E1,2.329031510E-1,-4.552398278E0,-4.430470968E0,6.356700949E0
1.336838625E1,2.480423598E-1,-4.626414088E0,-2.514102171E0,5.271237241E0
1.337831025E1,3.803824830E-2,-4.782573630E0,-2.412783372E-1,4.788807019E0
1.338823325E1,-1.877763506E-1,-4.744271151E0,2.336950833E0,5.291947459E0
1.339815625E1,-3.108453662E-1,-4.391136163E0,5.031510358E0,6.685416825E0
1.340807925E1,-1.224237023E-1,-3.791258908E0,7.894986003E0,8.758963161E0
1.341800225E1,2.755945496E-1,-3.148708672E0,1.056185136E1,1.102465522E1
1.342792625E1,6.907210600E-1,-2.509790142E0,1.281310189E1,1.307485075E1
1.343784925E1,8.024164738E-1,-2.176109571E0,1.467010976E1,1.485232121E1
1.344777225E1,3.933611273E-1,-2.014859590E0,1.659989440E1,1.672635305E1
1.345769525E1,-7.122377173E-1,-1.405820185E0,1.875894136E1,1.882502308E1
1.346761825E1,-1.998474230E0,-6.544105817E-1,2.067994349E1,2.078658739E1
1.347754225E1,-2.902031308E0,2.915478735E-1,2.228340673E1,2.247347328E1
1.348746525E1,-3.213695796E0,1.129029222E0,2.347130367E1,2.371718035E1
1.349738825E1,-3.091713522E0,1.436257574E0,2.338686520E1,2.363402192E1
1.350731125E1,-2.843976935E0,1.715698203E0,2.212836196E1,2.237624249E1
1.351723425E1,-2.356812947E0,1.725306494E0,2.055064752E1,2.075717619E1
1.352715825E1,-1.734846372E0,1.423802274E0,1.881619964E1,1.894957186E1
1.353708125E1,-1.300449997E0,1.018050239E0,1.687852125E1,1.695912958E1
1.354700425E1,-1.030432595E0,4.129658912E-1,1.495973287E1,1.500086463E1
1.355692742E1,-8.962482052E-1,-4.732465184E-1,1.299170860E1,1.303118243E1
1.356685042E1,-9.593643665E-1,-1.318683662E0,1.142034190E1,1.153618289E1
1.357677442E1,-7.887142548E-1,-1.965740932E0,1.052022620E1,1.073132643E1
1.358669742E1,-5.608658756E-1,-2.710400217E0,9.464407920E0,9.860824365E0
1.359662042E1,-5.590208232E-1,-3.304716186E0,8.161235459E0,8.822664993E0
1.360654342E1,-4.071611044E-1,-3.613529572E0,6.595858646E0,7.531847543E0
1.361646642E1,-1.283720474E-1,-3.889186029E0,4.620413675E0,6.040734217E0
1.362639042E1,-8.498103859E-2,-4.288127519E0,2.463708528E0,4.946222711E0
1.363631342E1,-6.211265126E-2,-4.443103877E0,5.288736391E-1,4.474900823E0
1.364623642E1,1.054052898E-1,-4.288570154E0,-8.579642916E-1,4.374819649E0
1.365615942E1,1.675807072E-1,-4.256329191E0,-2.058008240E0,4.730731381E0
1.366608242E1,1.613831703E-1,-4.273316522E0,-3.438725891E0,5.487450626E0
1.367600542E1,1.634294217E-1,-4.185968768E0,-4.976596817E0,6.505041090E0
1.368592942E1,2.388685169E-1,-4.026460818E0,-6.517626409E0,7.664783030E0
1.369585242E1,2.592238806E-1,-3.831005941E0,-7.861521803E0,8.749133020E0
1.370577542E1,1.659698907E-1,-3.657970457E0,-9.008719786E0,9.724470477E0
1.371569842E1,1.257823338E-1,-3.460245398E0,-9.967395351E0,1.055168657E1
1.372562142E1,2.457474738E-1,-3.229064325E0,-1.071671604E1,1.119532272E1
1.373554542E1,4.066761875E-1,-3.072304274E0,-1.124687606E1,1.166604733E1
1.374546842E1,5.177264706E-1,-3.025033921E0,-1.163823255E1,1.203608440E1
1.375539142E1,5.582719776E-1,-2.956284699E0,-1.205757848E1,1.242724771E1
1.376531442E1,4.855185816E-1,-2.864966100E0,-1.253661396E1,1.286897232E1
1.377523742E1,3.608783825E-1,-2.829458591E0,-1.288914610E1,1.320099073E1
1.378516142E1,3.767353005E-1,-2.808469133E0,-1.313868655E1,1.344077798E1
1.379508442E1,3.650281150E-1,-2.833605144E0,-1.321439630E1,1.351972016E1
1.380500742E1,2.967535399E-1,-2.877822666E0,-1.315507162E1,1.346944080E1
1.381493042E1,1.886760543E-1,-2.921476808E0,-1.298004575E1,1.330609683E1
1.382485342E1,4.793825135E-2,-2.957849706E0,-1.282619849E1,1.316292295E1
1.383477742E1,-8.139031827E-2,-3.045454445E0,-1.261872407E1,1.298127938E1
1.384470042E1,-2.305857532E-1,-3.080020845E0,-1.232607210E1,1.270715356E1
1.385462342E1,-2.955197774E-1,-3.013135715E0,-1.201205206E1,1.238772430E1
1.386454642E1,-2.402946163E-1,-3.029465234E0,-1.165225300E1,1.204202645E1
1.387446942E1,-1.540921126E-1,-3.079985762E0,-1.116454727E1,1.158262372E1
1.388439242E1,-1.704666919E-1,-3.080285724E0,-1.060907114E1,1.104851164E1
1.389431642E1,-1.662949228E-1,-3.119419092E0,-1.002228901E1,1.049784295E1
1.390423942E1,-6.377510604E-2,-3.192311651E0,-9.322036405E0,9.853693911E0
1.391416242E1,-9.158685738E-3,-3.173273410E0,-8.301033615E0,8.886895245E0
1.392408542E1,-2.316042834E-2,-3.112403895E0,-7.171921070E0,7.818186889E0
1.393400842E1,8.841172792E-3,-3.114768216E0,-6.243281482E0,6.977135722E0
1.394393242E1,5.433364347E-2,-3.087408217E0,-5.039829192E0,5.910576954E0
1.395385542E1,5.009965634E-2,-2.959793905E0,-3.288611493E0,4.424687049E0
1.396377842E1,1.040903058E-2,-2.874128103E0,-1.308339645E0,3.157922312E0
1.397370142E1,-6.776195694E-2,-2.927883603E0,6.987826163E-1,3.010878812E0
1.398362442E1,-2.708044739E-1,-3.132037968E0,2.710101424E0,4.150620029E0
1.399354842E1,-4.771678074E-1,-2.987995903E0,5.306162263E0,6.108286715E0
1.400347142E1,-5.921310107E-1,-2.484209158E0,8.100437281E0,8.493467985E0
1.401339442E1,-7.421079992E-1,-2.124874660E0,1.021925598E1,1.046417743E1
1.402331742E1,-1.071028351E0,-2.048833667E0,1.207073355E1,1.229013545E1
1.403324042E1,-1.340646974E0,-1.900378709E0,1.402321709E1,1.421475962E1
1.404316442E1,-1.611625804E0,-1.547957666E0,1.556271997E1,1.572233327E1
1.405308742E1,-1.805806720E0,-1.088547779E0,1.693178587E1,1.706256859E1
1.406301042E1,-1.647174098E0,-4.292109181E-1,1.814913056E1,1.822877793E1
1.407293342E1,-1.387258345E0,9.788443655E-2,1.887484604E1,1.892601068E1
1.408285642E1,-1.169734322E0,5.969271894E-1,1.913648672E1,1.918149432E1
1.409277942E1,-1.071088797E0,1.197340489E0,1.894266556E1,1.901066632E1
1.410270342E1,-1.214302019E0,1.514631021E0,1.851881493E1,1.862028847E1
1.411262642E1,-1.430397348E0,1.419311028E0,1.799119961E1,1.810369420E1
1.412254942E1,-1.433861824E0,1.108034210E0,1.695736861E1,1.705391597E1
1.413247242E1,-1.130689393E0,5.681145226E-1,1.542238446E1,1.547420935E1
1.414239542E1,-9.004048446E-1,-7.051362008E-2,1.405253502E1,1.408152839E1
1.415231942E1,-6.581701952E-1,-2.644545805E-1,1.300649504E1,1.302582195E1
1.416224242E1,-5.574476664E-1,-8.002127313E-1,1.184107012E1,1.188116282E1
1.417216542E1,-5.857153726E-1,-1.326393947E0,1.045288031E1,1.055296594E1
1.418208842E1,-5.287755521E-1,-1.665376626E0,8.791591035E0,8.963545940E0
1.419201142E1,-5.917211209E-1,-1.952293505E0,6.748260475E0,7.049865477E0
1.420193542E1,-5.603741247E-1,-2.056780618E0,4.609919677E0,5.078949212E0
1.421185842E1,-2.688632897E-1,-2.057204394E0,2.786467815E0,3.474015008E0
1.422178142E1,1.321838564E-1,-2.194474652E0,1.416989683E0,2.615540352E0
1.423170442E1,4.404200305E-1,-2.401140981E0,2.070405507E-1,2.449961960E0
1.424162742E1,4.981572651E-1,-2.429013489E0,-1.122050278E0,2.721628927E0
1.425155142E1,3.499177768E-1,-2.518815027E0,-2.490754239E0,3.559596644E0
1.426147442E1,2.174389649E-1,-2.665934189E0,-3.671348010E0,4.542387149E0
1.427139742E1,9.453537069E-2,-2.757308335E0,-4.291751624E0,5.102040591E0
1.428132042E1,4.389771113E-2,-2.803531744E0,-4.814566378E0,5.571513857E0
1.429124342E1,1.340318506E-1,-2.807911309E0,-5.722586344E0,6.375760733E0
1.430116742E1,2.083309216E-1,-2.777378026E0,-6.928322557E0,7.467187150E0
1.431109042E1,2.201032670E-1,-2.784025725E0,-8.240928916E0,8.701273130E0
1.432101342E1,2.998038496E-1,-2.684381569E0,-9.431194566E0,9.810362771E0
1.433093642E1,4.753910579E-1,-2.520690521E0,-1.037441419E1,1.068683054E1
1.434085942E1,5.723237870E-1,-2.479646576E0,-1.127410070E1,1.155774841E1
1.435078342E1,5.277071927E-1,-2.591376050E0,-1.197627879E1,1.226478530E1
1.436070642E1,4.750707766E-1,-2.660992707E0,-1.223939765E1,1.253433003E1
1.437062942E1,4.586115589E-1,-2.639836896E0,-1.212002791E1,1.241266047E1
1.438055242E1,4.006014055E-1,-2.643693427E0,-1.188908511E1,1.218605520E1
1.439047542E1,3.528857504E-1,-2.630909659E0,-1.170127606E1,1.199858639E1
1.440039842E1,3.695593416E-1,-2.648107782E0,-1.176086503E1,1.206096991E1
1.441032242E1,3.723993343E-1,-2.692253091E0,-1.207127968E1,1.237346762E1
1.442024542E1,3.172166751E-1,-2.762386934E0,-1.244802631E1,1.275479388E1
1.443016842E1,1.918751391E-1,-2.817884028E0,-1.290200179E1,1.320753333E1
1.444009142E1,3.992979515E-2,-2.931721130E0,-1.325130393E1,1.357179572E1
1.445001442E1,-2.205387019E-3,-3.058092617E0,-1.311037200E1,1.346230995E1
1.445993842E1,-4.370574430E-3,-3.138877748E0,-1.255982156E1,1.294610715E1
1.446986142E1,-9.709849767E-3,-3.171953401E0,-1.198106065E1,1.239383705E1
1.447978442E1,-1.824824642E-2,-3.186082905E0,-1.137247776E1,1.181036442E1
1.448970742E1,-2.939910594E-2,-3.173371350E0,-1.075205193E1,1.121060974E1
1.449963042E1,8.154947218E-2,-3.214034935E0,-1.020162428E1,1.069625210E1
1.450955442E1,1.999326205E-1,-3.370109400E0,-9.495140301E0,1.007746495E1
1.451947742E1,2.307805569E-1,-3.455186095E0,-8.546282212E0,9.221198960E0
1.452940042E1,2.588758799E-1,-3.639377189E0,-7.466362876E0,8.310153888E0
1.453932342E1,2.547617059E-1,-3.879704769E0,-6.253843893E0,7.363937537E0
1.454924642E1,2.063933918E-1,-3.879607413E0,-4.687289450E0,6.088073119E0
1.455916975E1,2.312285084E-1,-3.684017757E0,-2.819366004E0,4.644811958E0
1.456909375E1,3.842358164E-1,-3.524194934E0,-8.133552986E-1,3.637187641E0
1.457901675E1,3.795986455E-1,-3.564819050E0,1.546747584E0,3.904415203E0
1.458893975E1,-7.675938743E-2,-3.796540405E0,4.570158026E0,5.941881473E0
1.459886275E1,-7.735109825E-1,-3.635650173E0,8.332532566E0,9.123999692E0
1.460878575E1,-1.458626536E0,-3.564488389E0,1.224426136E1,1.283569652E1
1.461870975E1,-1.706261820E0,-3.532805544E0,1.547299562E1,1.596263254E1
1.462863275E1,-1.661098511E0,-3.148568631E0,1.784233301E1,1.819399845E1
1.463855575E1,-1.465948858E0,-2.603083345E0,1.927305663E1,1.950322437E1
1.464847875E1,-1.181658841E0,-1.829352434E0,2.028982896E1,2.040637173E1
1.465840175E1,-7.065981509E-1,-1.081032791E0,2.100402893E1,2.104369606E1
1.466832575E1,-6.860634604E-1,-3.678625162E-1,2.150366883E1,2.151775497E1
1.467824875E1,-8.850757840E-1,3.646045938E-1,2.172246228E1,2.174354302E1
1.468817175E1,-7.191896912E-1,9.875830293E-1,2.113625319E1,2.117153166E1
1.469809475E1,-5.498355418E-1,1.275470400E0,1.955975731E1,1.960900940E1
1.470801775E1,-7.636248026E-1,1.131014206E0,1.758958945E1,1.764244804E1
1.471794175E1,-1.000965259E0,7.825470503E-1,1.574353225E1,1.579471807E1
1.472786475E1,-1.129080751E0,1.572791375E-1,1.417396532E1,1.421973463E1
1.473778775E1,-1.190424987E0,-5.504919648E-1,1.310587783E1,1.317133959E1
1.474771075E1,-1.287490667E0,-1.120339675E0,1.213951668E1,1.225890119E1
1.475763375E1,-1.357603753E0,-1.513674563E0,1.111458164E1,1.129903640E1
1.476755675E1,-1.115679444E0,-1.717710814E0,1.011756588E1,1.032281020E1
1.477748075E1,-7.034931332E-1,-1.764880596E0,8.846638477E0,9.048354461E0
1.478740375E1,-4.417163948E-1,-2.197619577E0,6.908819169E0,7.263361997E0
1.479732675E1,-3.809799040E-1,-2.610268111E0,4.754044188E0,5.436872395E0
1.480724975E1,-3.678691309E-1,-2.776757344E0,2.818301226E0,3.973478432E0
1.481717275E1,-2.274995746E-1,-3.006035441E0,1.234819679E0,3.257726932E0
1.482709675E1,1.879548186E-2,-3.163029673E0,-2.914304906E-1,3.176482600E0
1.483701975E1,2.250485131E-1,-3.079120374E0,-2.105942545E0,3.737194551E0
1.484694275E1,3.925748961E-1,-2.860944970E0,-3.854231958E0,4.816038326E0
1.485686575E1,2.353398319E-1,-2.874584770E0,-4.981544731E0,5.756249677E0
1.486678875E1,4.890073959E-2,-3.079081197E0,-5.442425192E0,6.253249097E0
1.487671275E1,7.040793166E-2,-3.073981841E0,-5.966010609E0,6.711751204E0
1.488663575E1,1.965867158E-1,-3.043585090E0,-6.947017275E0,7.587035360E0
1.489655875E1,2.568863465E-1,-2.874014374E0,-8.279957326E0,8.768331799E0
1.490648175E1,4.669725291E-2,-2.860400302E0,-9.743108438E0,1.015441936E1
1.491640475E1,-1.260799297E-1,-3.073012665E0,-1.121387321E1,1.162799447E1
1.492632875E1,6.699787203E-2,-3.091678731E0,-1.234167832E1,1.272320674E1
1.493625175E1,3.347006173E-1,-3.105302744E0,-1.323390495E1,1.359746925E1
1.494617475E1,5.376509676E-1,-3.194960148E0,-1.382011522E1,1.419480270E1
1.495609775E1,6.223763184E-1,-3.333461683E0,-1.403736150E1,1.444115082E1
1.496602075E1,5.779312303E-1,-3.395062100E0,-1.407865688E1,1.449375833E1
1.497594375E1,4.635595094E-1,-3.393367285E0,-1.397906008E1,1.439249630E1
1.498586775E1,4.331072102E-1,-3.449705792E0,-1.366996223E1,1.410517349E1
1.499579075E1,5.250015398E-1,-3.536032037E0,-1.320679492E1,1.368205326E1
1.500571375E1,5.912290412E-1,-3.513400682E0,-1.275059048E1,1.323899897E1
1.501563675E1,6.095730358E-1,-3.471520292E0,-1.245731051E1,1.294633607E1
1.502555975E1,5.811467969E-1,-3.553530123E0,-1.241902762E1,1.293048936E1
1.503548375E1,4.372594277E-1,-3.499369411E0,-1.222287693E1,1.272145835E1
1.504540675E1,2.808376747E-1,-3.451726590E0,-1.186721653E1,1.236220508E1
1.505532975E1,1.715553704E-1,-3.341626443E0,-1.134651730E1,1.182959650E1
1.506525275E1,1.120171933E-1,-3.232444601E0,-1.075618708E1,1.123195470E1
1.507517575E1,9.541321135E-2,-3.214866993E0,-1.009703748E1,1.059691650E1
1.508509975E1,5.334807700E-2,-3.143160249E0,-9.257274399E0,9.776473376E0
1.509502275E1,-6.764972694E-2,-3.050799969E0,-8.297852730E0,8.841171690E0
1.510494575E1,-1.244673224E-1,-2.959446288E0,-7.331578124E0,7.907329020E0
1.511486875E1,-1.702693666E-1,-2.795004458E0,-6.344343004E0,6.934820093E0
1.512479175E1,-3.448482408E-1,-2.636330613E0,-5.232304328E0,5.869085788E0
1.513471575E1,-7.695247894E-1,-2.517684468E0,-3.924291542E0,4.725565319E0
1.514463875E1,-1.219598207E0,-2.521342193E0,-2.159948013E0,3.536942418E0
1.515456175E1,-1.415887921E0,-2.548484969E0,9.859633505E-2,2.917059389E0
1.516448475E1,-1.500525929E0,-2.585856278E0,2.430526164E0,3.853010276E0
1.517440775E1,-1.225752987E0,-2.700499712E0,4.818327307E0,5.657865951E0
1.518433175E1,-4.397546174E-1,-2.742216087E0,7.497866505E0,7.995694799E0
1.519425475E1,1.836230550E-1,-2.637094552E0,1.070112034E1,1.102279283E1
1.520417775E1,1.561253722E-1,-2.768085923E0,1.401993446E1,1.429143929E1
1.521410075E1,-4.105531473E-1,-3.203713137E0,1.710832384E1,1.741054497E1
1.522402375E1,-1.039849390E0,-3.222057899E0,1.933190535E1,1.962614349E1
1.523394775E1,-1.277504792E0,-2.591369618E0,2.016872143E1,2.037460525E1
1.524387075E1,-1.113821053E0,-2.062450078E0,2.008162598E1,2.021796230E1
1.525379375E1,-7.072623946E-1,-1.663449238E0,1.972963529E1,1.981226368E1
1.526371675E1,-1.297728118E-1,-1.002820581E0,1.936182672E1,1.938821353E1
1.527363975E1,1.818046258E-1,-2.865658996E-1,1.864821264E1,1.865130043E1
1.528356275E1,1.093037564E-1,1.097955072E-1,1.745053798E1,1.745122569E1
1.529348675E1,2.023869117E-2,3.834000300E-1,1.618090866E1,1.618546293E1
1.530340975E1,5.454882100E-2,2.994797677E-1,1.473464548E1,1.473778956E1
1.531333275E1,-1.552925460E-2,-2.065157631E-1,1.319044143E1,1.319206712E1
1.532325575E1,-2.411278993E-1,-8.543472040E-1,1.173693588E1,1.177045945E1
1.533317875E1,-4.227161964E-1,-1.526383340E0,1.038715995E1,1.050721784E1
1.534310275E1,-5.222848869E-1,-1.987886384E0,9.227015643E0,9.453163039E0
1.535302575E1,-5.051002490E-1,-2.235531169E0,8.392404546E0,8.699722980E0
1.536294875E1,-1.732317305E-1,-2.394108681E0,7.540976856E0,7.913791604E0
1.537287175E1,2.416810459E-1,-2.492542902E0,6.156677202E0,6.646491858E0
1.538279475E1,3.366777437E-1,-2.640054120E0,4.114027258E0,4.899842644E0
1.539271875E1,2.386988563E-1,-2.752221550E0,1.889968618E0,3.347190162E0
1.540264175E1,1.732995400E-1,-2.613058402E0,2.276566637E-1,2.628675427E0
1.541256475E1,2.206321659E-1,-2.364976391E0,-7.315755558E-1,2.485356046E0
1.542248775E1,2.894471699E-1,-2.151669379E0,-1.406873415E0,2.587035676E0
1.543241075E1,3.184316534E-1,-1.953595972E0,-2.109228680E0,2.892538948E0
1.544233375E1,4.722747112E-1,-2.000900532E0,-3.123052844E0,3.738997915E0
1.545225775E1,5.179730770E-1,-2.044012199E0,-4.342921777E0,4.827758439E0
1.546218075E1,4.359284187E-1,-1.998841581E0,-5.681143034E0,6.038276858E0
1.547210375E1,3.319325455E-1,-1.912704493E0,-6.786129967E0,7.058340996E0
1.548202675E1,3.181717812E-1,-1.862480419E0,-7.444244029E0,7.680288781E0
1.549194975E1,4.204118087E-1,-1.789050792E0,-7.756733851E0,7.971472190E0
1.550187375E1,5.474822202E-1,-1.698450525E0,-8.002894029E0,8.199438018E0
1.551179675E1,5.851013419E-1,-1.692959112E0,-8.463275723E0,8.650750840E0
1.552171975E1,5.381509776E-1,-1.729842910E0,-9.184111113E0,9.361082197E0
1.553164275E1,4.663235978E-1,-1.751926966E0,-1.006121977E1,1.022325042E1
1.554156575E1,3.908991206E-1,-1.804851577E0,-1.083498416E1,1.099123164E1
1.555148975E1,4.061300941E-1,-1.901418051E0,-1.134196582E1,1.150741157E1
1.556141275E1,4.210161185E-1,-1.971403375E0,-1.156645914E1,1.174081185E1
1.557133575E1,4.072884641E-1,-2.019924155E0,-1.160697567E1,1.178846308E1
1.558125875E1,3.686400862E-1,-2.106517911E0,-1.165694831E1,1.185148755E1
1.559118175E1,3.069255025E-1,-2.222092221E0,-1.176661869E1,1.197853132E1
1.560110575E1,2.838829777E-1,-2.345649151E0,-1.177638237E1,1.201107161E1
1.561102875E1,2.843030271E-1,-2.472595711E0,-1.159413285E1,1.185826607E1
1.562095175E1,2.519333529E-1,-2.542451519E0,-1.123050854E1,1.151745858E1
1.563087475E1,2.166906127E-1,-2.544400981E0,-1.085668084E1,1.115295701E1
1.564079775E1,1.419555587E-1,-2.568451163E0,-1.052603132E1,1.083579384E1
1.565072175E1,4.652249426E-2,-2.645055243E0,-1.019424510E1,1.053190936E1
1.566064475E1,-5.680829477E-2,-2.711089604E0,-9.853878676E0,1.022018390E1
1.567056775E1,-1.887058751E-1,-2.812744033E0,-9.492676869E0,9.902426624E0
1.568049075E1,-2.919460689E-1,-2.952277017E0,-8.946377943E0,9.425436350E0
1.569041375E1,-2.914949927E-1,-3.041880334E0,-8.156245446E0,8.709899257E0
1.570033675E1,-2.635170343E-1,-3.105525230E0,-7.038550758E0,7.697722063E0
1.571026075E1,-2.212071482E-1,-2.965387936E0,-5.738055153E0,6.462796233E0
1.572018375E1,2.852604356E-2,-2.678737544E0,-4.531897355E0,5.264460296E0
1.573010675E1,3.354580145E-1,-2.381492583E0,-3.445251968E0,4.201642551E0
1.574002975E1,4.133776083E-1,-2.296758534E0,-2.484170274E0,3.408384186E0
1.574995275E1,3.123912238E-1,-2.403198324E0,-1.330335116E0,2.764550955E0
1.575987675E1,1.865752228E-1,-2.266220281E0,3.845719582E-1,2.306178715E0
1.576979975E1,1.068756452E-1,-1.951053895E0,2.536559572E0,3.201900712E0
1.577972275E1,-2.391851071E-2,-1.867288146E0,4.573894982E0,4.940430388E0
1.578964575E1,-3.294362595E-1,-2.018479016E0,6.265281047E0,6.590639755E0
1.579956875E1,-6.258817242E-1,-2.142283136E0,7.882036759E0,8.191923367E0
1.580949275E1,-6.747702943E-1,-2.034070617E0,9.381499080E0,9.623163888E0
1.581941575E1,-5.880703387E-1,-2.145500128E0,1.104678902E1,1.126856447E1
1.582933875E1,-2.100448867E-1,-2.126615814E0,1.345615645E1,1.362478477E1
1.583926175E1,-5.230860651E-2,-1.861466658E0,1.633798124E1,1.644376555E1
1.584918475E1,-3.802886169E-1,-1.710179308E0,1.935062111E1,1.942976763E1
1.585910875E1,-6.612396911E-1,-1.362238548E0,2.185595188E1,2.190834463E1
1.586903175E1,-8.550881193E-1,-8.758599874E-1,2.284531012E1,2.287807905E1
1.587895475E1,-1.027771673E0,-3.523372816E-1,2.152714423E1,2.155454464E1
1.588887775E1,-1.153442663E0,-4.245809466E-3,1.863882669E1,1.867448281E1
1.589880075E1,-1.331212345E0,2.776928960E-1,1.567447429E1,1.573335260E1
1.590872375E1,-1.341164891E0,4.876465295E-1,1.306598111E1,1.314368231E1
1.591864775E1,-1.280301077E0,4.999429317E-1,1.106230753E1,1.114736568E1
1.592857075E1,-1.236839454E0,2.678169487E-1,9.816884512E0,9.898116956E0
1.593849375E1,-1.176505251E0,-8.424843729E-2,9.093108557E0,9.169290356E0
1.594841675E1,-1.181399663E0,-5.155751704E-1,8.720381888E0,8.815133759E0
1.595833975E1,-9.622863664E-1,-8.711366797E-1,8.332301016E0,8.432799914E0
1.596826375E1,-7.765068765E-1,-1.123898583E0,7.615766838E0,7.737313195E0
1.597818675E1,-6.135191754E-1,-1.500242924E0,6.503776109E0,6.702703804E0
1.598810975E1,-3.346406103E-1,-1.843439984E0,5.217712601E0,5.543895752E0
1.599803275E1,-4.064403255E-2,-1.952457958E0,3.762146498E0,4.238807649E0
1.600795575E1,1.370464192E-1,-2.027380817E0,2.146880071E0,2.956035984E0
1.601787975E1,3.163737259E-1,-2.165450682E0,5.340788305E-1,2.252667127E0
1.602780275E1,4.813716997E-1,-2.316794603E0,-1.072952378E0,2.598169115E0
1.603772575E1,4.803420416E-1,-2.480213756E0,-2.572065035E0,3.605233321E0
1.604764875E1,4.332213771E-1,-2.612409361E0,-3.896692684E0,4.711324369E0
1.605757175E1,5.048161839E-1,-2.662959710E0,-5.012419199E0,5.698292729E0
1.606749475E1,5.825885010E-1,-2.630965793E0,-5.923415397E0,6.507552561E0
1.607741875E1,6.619624069E-1,-2.539622344E0,-6.684369704E0,7.181133212E0
1.608734175E1,7.844625981E-1,-2.473150612E0,-7.503952287E0,7.939846059E0
1.609726475E1,8.832177582E-1,-2.454445369E0,-8.387551357E0,8.783814287E0
1.610718775E1,8.906823868E-1,-2.465897141E0,-9.239107684E0,9.603909341E0
1.611711075E1,9.117818452E-1,-2.381983164E0,-1.006591977E1,1.038402285E1
1.612703475E1,9.505654764E-1,-2.303355070E0,-1.091431684E1,1.119514767E1
1.613695775E1,9.691363795E-1,-2.262943501E0,-1.170620292E1,1.196224583E1
1.614688075E1,1.005385462E0,-2.209530648E0,-1.233047271E1,1.256715493E1
1.615680375E1,1.038176721E0,-2.334307891E0,-1.290937045E1,1.315973593E1
1.616672675E1,1.053016150E0,-2.272673853E0,-1.326289077E1,1.349733904E1
1.617665075E1,1.057290245E0,-2.122989225E0,-1.328371621E1,1.349377865E1
1.618657375E1,9.016358297E-1,-2.182237599E0,-1.326215870E1,1.347070753E1
1.619649675E1,5.806291721E-1,-2.227716366E0,-1.317267291E1,1.337232822E1
1.620641975E1,2.386416998E-1,-2.255584780E0,-1.303751686E1,1.323334646E1
1.621634275E1,-3.282708180E-2,-2.337982866E0,-1.277486578E1,1.298708733E1
1.622626675E1,-2.196950583E-1,-2.499999272E0,-1.214361675E1,1.240022944E1
1.623618975E1,-3.680746970E-1,-2.596226607E0,-1.114156771E1,1.144597757E1
1.624611275E1,-4.377893682E-1,-2.548069524E0,-9.937366390E0,1.026818234E1
1.625603575E1,-4.684575026E-1,-2.493444835E0,-8.758791078E0,9.118834395E0
1.626595875E1,-3.557321750E-1,-2.523378194E0,-7.747956596E0,8.156274536E0
1.627588175E1,-2.825871068E-1,-2.480487698E0,-6.749801801E0,7.196700566E0
1.628580575E1,-1.932997401E-1,-2.388990175E0,-5.821648702E0,6.295731288E0
