"Time (s)","Linear Acceleration x (m/s^2)","Linear Acceleration y (m/s^2)","Linear Acceleration z (m/s^2)","Absolute acceleration (m/s^2)"
9.805541602E-3,-2.523120332E-1,-2.874783576E-3,-8.785330421E-1,9.140513839E-1
1.972854161E-2,-7.275406846E-1,3.113776821E-1,-1.337002112E0,1.553655739E0
2.965154161E-2,-4.852653971E-1,4.191570693E-1,-1.312080109E0,1.460386718E0
3.957454162E-2,-3.938614297E-1,3.298119065E-1,-1.067173575E0,1.184382606E0
4.949754162E-2,-4.739624369E-1,2.315848231E-1,-7.941056800E-1,9.533497537E-1
5.942054163E-2,-3.878136545E-1,3.324557251E-1,-5.234626257E-1,7.313954883E-1
6.934354163E-2,-5.163836941E-1,3.492778721E-1,-4.475593346E-1,7.674350197E-1
7.926654164E-2,-7.428630209E-1,2.110032088E-1,-4.399257946E-1,8.887646070E-1
8.918954164E-2,-8.402253011E-1,2.189051360E-1,-2.195056450E-1,8.955896065E-1
9.911254165E-2,-8.371853337E-1,3.557200420E-1,2.404451090E-1,9.408665589E-1
1.090355417E-1,-7.200553715E-1,5.063481179E-1,4.626521677E-1,9.944421465E-1
1.189585417E-1,-4.969038413E-1,6.128975433E-1,3.065689319E-1,8.464876468E-1
1.288815417E-1,-3.867632023E-1,2.397016355E-1,-6.369412941E-1,7.827751023E-1
1.388045417E-1,-5.451227590E-2,-3.923332599E-1,-1.519176793E0,1.569966593E0
1.487275417E-1,9.608466357E-2,1.059948170E-1,-1.232541019E0,1.240816073E0
1.586505416E-1,-4.311185722E-1,9.135455847E-2,-7.909914529E-1,9.054702410E-1
1.685735416E-1,-2.025579290E-1,5.493155050E-1,-3.482788754E-1,6.812308079E-1
1.784965416E-1,-1.620240068E-1,6.048997217E-1,5.887538052E-1,8.595269020E-1
1.884195416E-1,-6.233701989E-2,-1.805678666E-1,7.759623545E-1,7.991296729E-1
1.983425416E-1,1.426995438E0,-3.181180599E-1,1.553897560E-2,1.462106884E0
2.082655416E-1,1.411816359E0,-6.592928606E-1,-3.039464557E-1,1.587537702E0
2.181885416E-1,3.665642881E-1,-9.713014573E-1,-3.633582598E-1,1.099920508E0
2.281115416E-1,-2.783917844E-2,-7.362334478E-1,-1.912045366E-1,7.611661345E-1
2.380345416E-1,4.819892022E-1,-4.924992800E-1,-1.885095549E-1,7.144263322E-1
2.479575416E-1,1.562327783E-1,-3.388259742E-1,4.460250252E-1,5.815067024E-1
2.578805416E-1,-3.896653216E-1,5.454545885E-2,1.420036082E0,1.473538851E0
2.678035416E-1,-1.254614405E-1,6.299465623E-1,2.168446357E0,2.261577513E0
2.777265416E-1,4.320275219E-1,4.220800924E-1,2.023802029E0,2.112007111E0
2.876495416E-1,6.025258984E-1,4.973027676E-2,1.136981728E0,1.287725906E0
2.975725416E-1,5.833413665E-1,-2.447094834E-1,-2.672136623E-1,6.867117463E-1
3.074955416E-1,4.951856370E-1,-5.054453078E-1,-1.262900932E0,1.447619611E0
3.174185416E-1,2.701899316E-1,-5.907640779E-1,-1.677830465E0,1.799199784E0
3.273415416E-1,-2.021282317E-1,-6.390258265E-1,-1.810559921E0,1.930631259E0
3.372645417E-1,-6.849639646E-1,-4.608032781E-1,-1.303669474E0,1.543071415E0
3.471875417E-1,-8.850200162E-1,-1.383682188E-1,-6.576901388E-1,1.111288672E0
3.571095417E-1,-4.013695469E-1,-1.309568730E-1,-5.351640737E-1,6.816507915E-1
3.670335417E-1,5.429044716E-2,-7.891311613E-1,-3.593535018E-1,8.687982399E-1
3.769555417E-1,1.260890952E0,-9.514220935E-1,-1.177110584E0,1.969933837E0
3.868785417E-1,2.249943971E0,-1.110737085E0,-2.752636410E0,3.724646554E0
3.968015417E-1,1.557882437E0,-1.430803730E0,-2.411204039E0,3.207507119E0
4.067245416E-1,-4.473675460E-2,-1.046344769E0,-1.831688250E0,2.109957488E0
4.166475416E-1,5.701600979E-1,-7.383802530E-1,-1.622934465E0,1.871951980E0
4.265705416E-1,1.441591989E0,-1.046000514E0,-8.882370812E-1,1.990293860E0
4.364935416E-1,5.005061647E-1,-9.343314131E-1,6.022421622E-1,1.219088689E0
4.464165416E-1,-5.521262616E-2,-9.095361489E-1,-9.908106923E-3,9.112642925E-1
4.563395416E-1,1.518093596E-1,-1.768380300E0,-1.674984040E0,2.440448013E0
4.662625416E-1,4.274285406E-1,-4.242371303E0,-1.715562547E0,4.596037890E0
4.761855416E-1,1.626546437E0,-4.337807803E0,-1.665370048E0,4.922975446E0
4.861085416E-1,2.613323573E0,-1.962016255E0,-2.690564708E0,4.232978423E0
4.960315416E-1,1.571556882E0,-3.338742596E-1,-3.372951731E0,3.736049576E0
5.059545416E-1,-2.064818493E-1,1.516416907E-2,-2.422544714E0,2.431375660E0
5.158775416E-1,-4.185780488E-1,-7.048942722E-1,-2.064293997E0,2.221124316E0
5.258005416E-1,6.586844578E-1,-2.080535954E0,-2.684525118E0,3.459648853E0
5.357235416E-1,1.759264930E0,-2.568461104E0,-3.228437212E0,4.484953998E0
5.456465416E-1,1.774921142E0,-2.066684339E0,-3.734903151E0,4.622881219E0
5.555695416E-1,1.332674880E0,-1.798414816E0,-3.794965165E0,4.405914070E0
5.654925416E-1,1.423178084E0,-2.077165035E0,-3.966753438E0,4.698423488E0
5.754155417E-1,1.426451940E0,-2.608867410E0,-4.109760545E0,5.072581792E0
5.853385417E-1,9.391546351E-1,-2.879272775E0,-4.165172853E0,5.149843497E0
5.952615417E-1,7.019763654E-1,-2.884778221E0,-4.023499496E0,5.000326429E0
6.051845417E-1,7.540370500E-1,-2.580354633E0,-4.475547738E0,5.220855242E0
6.151075417E-1,6.502577430E-1,-2.297382870E0,-4.237740893E0,4.864077617E0
6.250305417E-1,5.738954455E-1,-1.769176106E0,-3.022543300E0,3.548958731E0
6.349535416E-1,7.856500214E-1,-1.490915884E0,-1.759717212E0,2.436530483E0
6.448765416E-1,9.096384752E-1,-2.131798348E0,-6.416939110E-1,2.404948529E0
6.547995416E-1,6.723134404E-1,-2.945865837E0,5.235696298E-1,3.066635950E0
6.647225416E-1,-6.494093120E-2,-3.318965558E0,1.434946482E0,3.616465278E0
6.746455416E-1,-1.487937459E0,-3.343712437E0,1.841118640E0,4.096838853E0
6.845685416E-1,-2.728378066E0,-3.062896689E0,2.773929631E0,4.951774288E0
6.944915416E-1,-2.671653058E0,-2.861703939E0,3.699898210E0,5.386680449E0
7.044145416E-1,-1.473674346E0,-3.059628680E0,3.952073418E0,5.210751197E0
7.143375416E-1,-8.831704688E-1,-2.842208737E0,4.101773248E0,5.067808635E0
7.242605416E-1,-7.879900771E-1,-2.023014555E0,4.293113148E0,4.810856135E0
7.341835416E-1,2.673066330E-1,-1.365053836E0,4.342580885E0,4.559915959E0
7.441065416E-1,2.044712257E0,-6.409755074E-1,4.452608526E0,4.941398638E0
7.540295416E-1,3.089616711E0,2.172744937E-1,4.482370562E0,5.448356218E0
7.639525416E-1,3.355818220E0,1.113864469E0,4.440601854E0,5.676368100E0
7.738745416E-1,3.317960422E0,1.998961887E0,4.528879900E0,5.959485140E0
7.837975416E-1,3.295287259E0,2.688902929E0,4.863943191E0,6.461196518E0
7.937205416E-1,3.113475689E0,3.210228690E0,5.220129256E0,6.873794335E0
8.036435416E-1,3.060692874E0,3.706245947E0,5.175805022E0,7.063501788E0
8.135665416E-1,3.427646586E0,4.042659945E0,5.016415771E0,7.297690575E0
8.234895417E-1,3.859037785E0,4.080612467E0,4.914273099E0,7.462817888E0
8.334125417E-1,4.172558472E0,4.170682100E0,4.497430358E0,7.418336283E0
8.433355417E-1,4.287291952E0,4.392605569E0,3.760492905E0,7.198413913E0
8.532584583E-1,4.832359455E0,4.865265831E0,2.907922086E0,7.448390455E0
8.631814583E-1,5.624968248E0,5.437369689E0,2.021084243E0,8.080225148E0
8.731044583E-1,6.090282653E0,5.775765016E0,1.038849662E0,8.457553602E0
8.830274583E-1,6.354721811E0,6.079276439E0,1.045400663E-1,8.794942862E0
8.929504583E-1,6.263274867E0,6.357767626E0,-8.436959159E-1,8.964465631E0
9.028734583E-1,5.847692785E0,6.313056307E0,-1.691789523E0,8.769968223E0
9.127964582E-1,5.520287300E0,6.195813786E0,-2.498813456E0,8.666357311E0
9.227194582E-1,5.132971244E0,6.069059599E0,-3.255252542E0,8.589385736E0
9.326424582E-1,4.588196102E0,5.790166708E0,-3.702385030E0,8.263487695E0
9.425654582E-1,4.247202272E0,5.224379597E0,-3.757803186E0,7.710639020E0
9.524884582E-1,3.752302710E0,4.498558871E0,-3.925521796E0,7.051703973E0
9.624114583E-1,2.492766851E0,3.849320590E0,-3.928764662E0,6.038737231E0
9.723344583E-1,1.388921878E0,3.237496887E0,-3.599954676E0,5.036880359E0
9.822574583E-1,6.587332821E-1,2.782860960E0,-3.163526101E0,4.264521316E0
9.921804583E-1,3.267687231E-1,2.633926530E0,-2.705532995E0,3.790020521E0
1.002103458E0,3.270219076E-1,2.600759076E0,-2.219246966E0,3.434522994E0
1.012026458E0,3.785113192E-1,2.538172527E0,-1.971222696E0,3.235940283E0
1.021949458E0,4.803452575E-1,2.492303751E0,-1.813250810E0,3.119324936E0
1.031872458E0,5.528682733E-1,2.276245040E0,-2.028783857E0,3.098857652E0
1.041795458E0,2.456596559E-1,1.572119530E0,-3.854962860E0,4.170449273E0
1.051718458E0,-5.106794429E-1,1.245623872E0,-5.200950973E0,5.372361059E0
1.061641458E0,-6.502764541E-1,1.659506168E0,-3.696186397E0,4.103488037E0
1.071564458E0,1.807771969E-1,1.730035283E0,-1.312641442E0,2.179158101E0
1.081487458E0,8.287223661E-1,1.049909378E0,4.252224227E-1,1.403532889E0
1.091410458E0,5.006052750E-1,4.636727992E-1,8.251333451E-1,1.070720852E0
1.101333458E0,-4.315128207E-1,-8.784476727E-2,2.510712906E-1,5.069090752E-1
1.111256458E0,-1.157667423E0,-2.719689104E-1,-3.066548860E-1,1.228087199E0
1.121179458E0,-1.085205803E0,-1.665833732E-1,-3.866845572E-1,1.164021736E0
1.131102458E0,-6.490654957E-1,-1.437230989E-1,-3.920733146E-1,7.717926088E-1
1.141025458E0,-1.272272265E-1,1.461116865E-1,-3.802665802E-1,4.267763631E-1
1.150948458E0,3.038347739E-1,1.239141941E-1,-2.616675417E-1,4.196906000E-1
1.160871458E0,3.285603100E-1,-1.775460255E-1,2.792034145E-1,4.662928427E-1
1.170794458E0,1.410991609E-1,-4.165895569E-1,1.457317929E0,1.522245506E0
1.180717458E0,-9.547333717E-2,-8.703203353E-1,2.271587148E0,2.434477524E0
1.190640458E0,-6.037408036E-1,-1.340052896E0,2.214949847E0,2.658241439E0
1.200563458E0,-1.085500503E0,-1.172146591E0,1.625392635E0,2.279065639E0
1.210486458E0,-1.234851254E0,-9.678808361E-1,9.642842138E-1,1.841601199E0
1.220408458E0,-1.287072737E0,-5.468780932E-1,1.055876169E0,1.752286040E0
1.230331458E0,-9.272327471E-1,-4.817152601E-1,1.306609454E0,1.673032703E0
1.240254458E0,-6.562166405E-1,-5.989937416E-1,1.307788253E0,1.581051516E0
1.250177458E0,-6.781226492E-1,-6.279938847E-1,1.076002359E0,1.418452580E0
1.260100458E0,-5.064717865E-1,-6.123905897E-1,1.173920928E0,1.417612871E0
1.270023458E0,-4.930313766E-2,-8.091090506E-1,1.364956480E0,1.587512031E0
1.279946458E0,3.397688377E-1,-1.031893814E0,1.319787324E0,1.709411094E0
1.289869458E0,-7.416257501E-2,-6.612902695E-1,1.632627395E0,1.763030663E0
1.299792458E0,-8.994128644E-1,5.482156438E-1,1.886353285E0,2.160512117E0
1.309715458E0,-1.457251271E0,2.413949892E0,1.637503388E0,3.260698191E0
1.319638458E0,-2.215727527E0,2.982547175E0,2.507686021E0,4.482580207E0
1.329561458E0,-2.426862298E0,3.174756848E0,2.615577090E0,4.775980023E0
1.339484458E0,-2.278002713E0,2.929994155E0,2.217802704E0,4.323518352E0
1.349407458E0,-2.218128979E0,2.717670645E0,1.874026769E0,3.977160574E0
1.359330458E0,-2.295992256E0,2.592468309E0,1.655941413E0,3.838569309E0
1.369253458E0,-2.199632481E0,2.246551709E0,1.015174870E0,3.303930637E0
1.379176458E0,-1.863708773E0,1.435725331E0,5.788386816E-1,2.422761201E0
1.389099458E0,-1.460545592E0,2.856715679E-1,6.712451541E-1,1.632596622E0
1.399022458E0,-1.087715428E0,-4.912392050E-1,1.485543609E0,1.905591935E0
1.408945458E0,-1.263616047E0,-1.595447874E-1,2.070419540E0,2.430805859E0
1.418868458E0,-1.845138016E0,2.941020834E-1,2.192806442E0,2.880873205E0
1.428791458E0,-2.177126841E0,1.201612172E0,2.277308064E0,3.371926024E0
1.438714458E0,-1.927219767E0,2.037057667E0,2.230626233E0,3.583221087E0
1.448637458E0,-1.635001072E0,2.966771972E0,1.903362835E0,3.885582906E0
1.458560458E0,-7.821045622E-1,3.715878650E0,6.544694924E-1,3.853280681E0
1.468483458E0,1.011242326E0,3.959218131E0,-2.261690150E0,4.670466956E0
1.478406458E0,7.308826607E-1,5.279356288E0,-2.661218702E0,5.957170239E0
1.488329458E0,-3.589956522E-2,6.106171292E0,-6.481311107E-1,6.140577380E0
1.498252458E0,-2.879321746E-1,6.455036058E0,7.761296580E-1,6.507900790E0
1.508175458E0,-5.545334872E-2,6.489211864E0,1.412435871E0,6.641379434E0
1.518098458E0,4.135194764E-1,6.293904337E0,1.834400774E0,6.568809356E0
1.528021458E0,8.421560517E-1,6.049562643E0,1.842127284E0,6.379644812E0
1.537944458E0,1.233079256E0,5.701456845E0,1.572998659E0,6.041640455E0
1.547867458E0,1.585236297E0,5.318487024E0,1.283848436E0,5.696274673E0
1.557790458E0,1.534110143E0,4.559068197E0,9.480779247E-1,4.902800068E0
1.567713458E0,1.557067481E0,3.662770729E0,7.181297372E-1,4.044262464E0
1.577636458E0,2.025162091E0,4.994422054E0,1.603704143E0,5.622935188E0
1.587559458E0,9.650494681E-1,4.805181597E0,2.241635370E0,5.389435943E0
1.597482458E0,-1.785888764E0,-2.944185348E0,2.965080080E0,4.544152938E0
1.607405458E0,-6.980956269E0,-2.154798604E1,4.804260660E0,2.315448927E1
1.617328458E0,-1.108861416E1,-3.416251649E1,7.061587619E0,3.660465704E1
1.627251458E0,-1.078164352E1,-3.623721620E1,6.469526628E0,3.835667412E1
1.637174458E0,-5.452132155E0,-2.964895718E1,3.845506158E0,3.039036565E1
1.647097458E0,-1.180287377E0,-1.629622745E1,1.356742166E0,1.639514735E1
1.657020458E0,-5.879463047E-2,-3.446144253E0,-2.005117397E0,3.987463203E0
1.666943458E0,6.202565566E-1,1.833662855E0,-5.039552618E0,5.398530194E0
1.676866458E0,1.234770563E0,5.173112379E0,-5.897903411E0,7.941726177E0
1.686789458E0,1.560799905E0,6.900000983E0,-5.125117264E0,8.735727610E0
1.696711458E0,1.335133342E0,7.384795972E0,-3.240989137E0,8.174460421E0
1.706634458E0,2.720982800E-1,6.864926460E0,-1.456679121E0,7.023045411E0
1.716557458E0,-8.061319408E-1,5.333036066E0,-3.376676407E-1,5.404178182E0
1.726480458E0,-5.260889027E-1,2.498445666E0,4.800106506E-1,2.597962761E0
1.736403458E0,2.867641202E-1,-9.953656733E-2,1.312638518E0,1.347279135E0
1.746326458E0,9.186899650E-1,-1.899302529E0,1.992258347E0,2.901798523E0
1.756249458E0,1.852477441E0,-2.887907651E0,2.361688648E0,4.165243875E0
1.766172458E0,2.623693026E0,-3.276936357E0,2.084272033E0,4.686818418E0
1.776095458E0,3.003600368E0,-3.107699810E0,1.193709075E0,4.483787978E0
1.786018458E0,3.219416420E0,-2.304553165E0,-1.475084402E-1,3.961990171E0
1.795941458E0,3.348061303E0,-1.513884478E0,-1.277576567E0,3.890187989E0
1.805864458E0,3.212516997E0,-1.116935134E0,-1.794381406E0,3.845466706E0
1.815787458E0,3.029231345E0,-1.230084019E0,-1.926383031E0,3.794772828E0
1.825710458E0,3.072726443E0,-1.640926348E0,-1.925152192E0,3.980012316E0
1.835633458E0,3.144628485E0,-2.031665949E0,-1.765412546E0,4.139207206E0
1.845556458E0,3.056931652E0,-2.367322440E0,-1.316093346E0,4.084256157E0
1.855480042E0,2.882976694E0,-2.836826960E0,-7.694394931E-1,4.117180947E0
1.865403042E0,2.793619837E0,-3.381710860E0,-3.814572926E-1,4.402929684E0
1.875326042E0,2.795787692E0,-3.833938612E0,-1.963611960E-1,4.749112740E0
1.885249042E0,2.844841738E0,-4.000697694E0,-4.052882047E-1,4.925745130E0
1.895172042E0,2.927216435E0,-3.719727287E0,-1.144396875E0,4.869765021E0
1.905095042E0,3.036337759E0,-3.516014387E0,-2.317922677E0,5.191769418E0
1.915018042E0,3.051051400E0,-3.661363304E0,-3.794986215E0,6.092324373E0
1.924941042E0,2.812638198E0,-3.923776987E0,-5.396045077E0,7.240460065E0
1.934864042E0,2.228469487E0,-3.906302583E0,-6.641124281E0,8.020586503E0
1.944787042E0,1.431787232E0,-3.335385125E0,-7.109665765E0,7.982615855E0
1.954710042E0,5.993132919E-1,-2.637729852E0,-6.781256897E0,7.300838329E0
1.964633042E0,9.776339918E-2,-2.021490040E0,-5.914110723E0,6.250814772E0
1.974556042E0,1.977464014E-1,-1.490514327E0,-4.374390907E0,4.625584548E0
1.984479042E0,7.094570008E-1,-9.882040036E-1,-2.199668149E0,2.513646028E0
1.994402042E0,1.608144518E0,-5.154981333E-1,-1.254052341E-1,1.693397056E0
2.004325042E0,2.603997849E0,-1.884025508E-1,1.614463019E0,3.069656522E0
2.014248042E0,3.314751470E0,6.982043266E-2,3.908898747E0,5.125616218E0
2.024171042E0,3.836411984E0,3.836358190E-1,6.461595465E0,7.524456745E0
2.034094042E0,4.197933341E0,5.956137586E-1,8.318517959E0,9.336762882E0
2.044017042E0,4.176978967E0,3.861682481E-1,8.631534616E0,9.596857247E0
2.053940042E0,3.946357765E0,-3.487232637E-1,7.290807828E0,8.297663906E0
2.063863042E0,3.487414193E0,-1.215131519E0,5.099002429E0,6.295905665E0
2.073786042E0,2.821011996E0,-1.769606023E0,3.012441065E0,4.490480523E0
2.083709042E0,2.396400497E0,-1.787843488E0,2.180612658E0,3.700566342E0
2.093632042E0,2.216120460E0,-1.547665597E0,2.050267696E0,3.392647391E0
2.103555042E0,2.194297774E0,-1.179379304E0,1.758646002E0,3.049379285E0
2.113478042E0,1.912583602E0,-7.982314754E-1,1.279690043E0,2.435724970E0
2.123401042E0,1.470107836E0,-4.699237651E-1,1.225347263E0,1.970665195E0
2.133324042E0,1.117358472E0,-2.372402501E-1,1.715884144E0,2.061317852E0
2.143247042E0,5.552456050E-1,-5.491178691E-2,2.782033871E0,2.837432898E0
2.153170042E0,-1.049002182E-1,4.264608264E-2,3.586352298E0,3.588139567E0
2.163093042E0,-7.817334102E-1,5.854758561E-2,3.630139757E0,3.713818736E0
2.173016042E0,-1.455851886E0,1.545921957E-1,3.196442417E0,3.515771265E0
2.182939042E0,-2.044522076E0,4.076573503E-1,2.531037462E0,3.279086103E0
2.192862042E0,-2.436327917E0,6.611914515E-1,2.063863496E0,3.260736172E0
2.202785042E0,-2.620028868E0,8.063690454E-1,1.842117344E0,3.302753187E0
2.212708042E0,-2.689466893E0,8.822822767E-1,1.736735315E0,3.320828773E0
2.222631042E0,-2.718246888E0,9.200482732E-1,1.703112656E0,3.337056740E0
2.232554042E0,-2.904052106E0,8.866489774E-1,1.820303721E0,3.540221841E0
2.242477042E0,-3.165883991E0,8.553453237E-1,2.033014902E0,3.858443554E0
2.252400042E0,-3.378865897E0,8.418721694E-1,2.264847647E0,4.153916028E0
2.262323042E0,-3.534790089E0,8.985550779E-1,2.446217752E0,4.391596918E0
2.272245042E0,-3.592922522E0,1.085893435E0,2.406895372E0,4.458856595E0
2.282168042E0,-3.537321933E0,1.363059644E0,2.086127501E0,4.326951121E0
2.292091042E0,-3.351135185E0,1.640267951E0,1.605451437E0,4.061780434E0
2.302014042E0,-3.045825743E0,1.924500520E0,1.155082515E0,3.783513225E0
2.311937042E0,-2.729627909E0,2.199030803E0,8.980014928E-1,3.618426685E0
2.321860042E0,-2.500530199E0,2.410129906E0,7.886747861E-1,3.561374083E0
2.331783042E0,-2.329338927E0,2.488886054E0,8.344140458E-1,3.509504299E0
2.341706042E0,-2.333054540E0,2.451441654E0,9.415360598E-1,3.512719719E0
2.351629042E0,-2.399678300E0,2.295725039E0,9.763132520E-1,3.461502125E0
2.361552042E0,-2.316843427E0,2.092478746E0,9.149359064E-1,3.253204341E0
2.371475042E0,-1.909605030E0,1.943360714E0,8.874610095E-1,2.865454463E0
2.381398042E0,-1.636207645E0,1.902082880E0,9.151151235E-1,2.670679769E0
2.391321042E0,-1.359234103E0,1.881194286E0,7.294834220E-1,2.432808121E0
2.401244042E0,-1.218508871E0,1.765597172E0,5.076133092E-1,2.204488266E0
2.411167042E0,-1.089904918E0,1.629694431E0,3.290637553E-1,1.987983809E0
2.421090042E0,-9.382567951E-1,1.469499434E0,1.892860651E-2,1.743591894E0
2.431013042E0,-4.843351417E-1,1.192119218E0,-3.567808731E-1,1.335298225E0
2.440936042E0,-1.870623690E-1,7.604122692E-1,-3.839726186E-1,8.721548721E-1
2.450859042E0,5.965417117E-2,3.108958715E-1,-4.471938837E-1,5.479025759E-1
2.460782042E0,3.500719240E-1,-3.866997600E-2,-8.150047982E-1,8.878505167E-1
2.470705042E0,6.195751367E-1,-3.182060605E-1,-1.319382989E0,1.491945012E0
2.480628042E0,7.149639085E-1,-5.898706234E-1,-2.002547254E0,2.206652724E0
2.490551042E0,8.175117919E-1,-1.075523399E0,-2.896536387E0,3.196091230E0
2.500474042E0,9.804693067E-1,-1.796369314E0,-3.647677896E0,4.182561034E0
2.510397042E0,1.160001631E0,-2.629917387E0,-4.309816597E0,5.180404264E0
2.520320042E0,1.124866882E0,-3.220254618E0,-4.586690444E0,5.716038360E0
2.530243042E0,8.454652834E-1,-2.947561530E0,-3.876126273E0,4.942396726E0
2.540166042E0,3.502762842E-1,-1.618261955E0,-2.594830585E0,3.078085605E0
2.550089042E0,-1.104410581E-1,1.070356214E-1,-1.535959618E0,1.543640437E0
2.560012042E0,-6.853360668E-1,1.656330253E0,-5.752512686E-1,1.882559283E0
2.569935042E0,-1.359520616E0,2.810781707E0,2.123148854E-1,3.129515573E0
2.579858042E0,-2.181952840E0,3.275135415E0,9.494917814E-1,4.048328646E0
2.589781042E0,-3.474431621E0,2.544457406E0,1.595756607E0,4.592643871E0
2.599704042E0,-5.185631853E0,2.170018673E-1,2.053448728E0,5.581623348E0
2.609627042E0,-6.535310143E0,-3.397408880E0,3.318708866E0,8.078768118E0
2.619550042E0,-6.595793157E0,-6.690038579E0,4.587877429E0,1.045512902E1
2.629473042E0,-5.250326031E0,-8.488959618E0,3.571025577E0,1.060097083E1
2.639396042E0,-1.873409011E0,-8.499517935E0,3.365657330E-2,8.703596912E0
2.649319042E0,1.763497437E0,-7.260051473E0,-4.560860953E0,8.753269289E0
2.659242042E0,3.179401876E0,-4.522792071E0,-6.344854635E0,8.415546610E0
2.669165042E0,2.931890700E0,-1.134701314E0,-3.373853956E0,4.611552956E0
2.679088042E0,2.271440967E0,2.478965667E0,-1.219261042E-1,3.364458474E0
2.689011042E0,1.394034391E0,5.694155427E0,2.674380784E0,6.443527799E0
2.698934042E0,-2.614240051E-1,7.565463826E0,5.110474666E0,9.133539113E0
2.708857042E0,-2.048405066E0,7.603087150E0,6.600166290E0,1.027448746E1
2.718780042E0,-3.240141583E0,7.008513027E0,6.611293541E0,1.016498768E1
2.728703042E0,-4.785910051E0,5.370233713E0,5.698544347E0,9.177023092E0
2.738626042E0,-6.120112808E0,2.766998341E0,4.971039623E0,8.356033481E0
2.748549042E0,-6.809058654E0,8.722408533E-2,3.540567430E0,7.675057363E0
2.758472042E0,-5.623458497E0,-2.387047437E0,2.129685164E0,6.469686224E0
2.768395042E0,-2.779677444E0,-2.872758100E0,1.298521585E0,4.203035106E0
2.778318042E0,-4.481681029E-1,-2.333675807E0,7.213698256E-1,2.483399252E0
2.788241042E0,7.075754399E-1,-1.546414293E0,8.965617621E-1,1.922467987E0
2.798164042E0,6.666993094E-1,-5.713238400E-1,1.403452209E0,1.655468817E0
2.808087042E0,4.070653928E-1,1.894521260E-1,1.571019377E0,1.633920507E0
2.818010042E0,4.589805548E-1,4.469523937E-1,1.110933406E0,1.282420611E0
2.827933042E0,8.974500272E-1,3.379790050E-1,2.691496023E-1,9.960360775E-1
2.837856042E0,1.804044077E0,7.857605338E-2,-8.005259228E-1,1.975244537E0
2.847779042E0,2.819206375E0,-9.734503090E-2,-1.299514443E0,3.105823309E0
2.857702042E0,3.120173382E0,4.794132113E-3,-1.111905359E0,3.312376556E0
2.867625042E0,2.751582157E0,2.290716898E-1,-5.979082060E-1,2.825096888E0
2.877548042E0,2.042623631E0,2.813241631E-1,1.031853761E-1,2.064485845E0
2.887471042E0,1.252308994E0,2.002899402E-1,8.015953785E-1,1.500316309E0
2.897394042E0,7.014922891E-1,1.638255340E-1,1.459648629E0,1.627729817E0
2.907317042E0,5.277541897E-1,1.715614003E-1,1.933673047E0,2.011727927E0
2.917240042E0,5.947428889E-1,1.531631362E-1,2.141912715E0,2.228220844E0
2.927163042E0,6.724716807E-1,1.988930404E-2,2.039107116E0,2.147224156E0
2.937086042E0,6.651495049E-1,-1.273435861E-1,1.637372264E0,1.771899598E0
2.947008042E0,5.099331189E-1,-4.863421619E-2,1.186501140E0,1.292355225E0
2.956931042E0,2.233526744E-1,9.716025889E-2,7.874483326E-1,8.242580965E-1
2.966854042E0,-3.031140315E-1,1.053931385E-1,3.697391801E-1,4.895844064E-1
2.976777042E0,-1.015087089E0,8.117747962E-2,1.022546455E-2,1.018379174E0
2.986700042E0,-1.692180701E0,-9.165510535E-3,-3.317699929E-1,1.724421892E0
2.996623042E0,-2.133250211E0,-1.405957156E-1,-7.071833110E-1,2.251806354E0
3.006546042E0,-2.428263145E0,-8.392684042E-2,-1.040545062E0,2.643149569E0
3.016469042E0,-2.552178947E0,9.656091928E-3,-1.286399138E0,2.858064618E0
3.026392042E0,-2.604903291E0,1.264624107E-1,-1.401389458E0,2.960642887E0
3.036315042E0,-2.605409367E0,1.597237122E-1,-1.270548506E0,2.903095441E0
3.046238042E0,-2.399557555E0,4.689350009E-2,-9.496427858E-1,2.581065067E0
3.056161042E0,-1.878121867E0,-1.969938648E-1,-5.501791388E-1,1.966938081E0
3.066084042E0,-1.176968497E0,-4.098360229E-1,-2.807832956E-1,1.277520907E0
3.076007042E0,-4.042889886E-1,-5.258938980E-1,-2.066927876E-1,6.947919737E-1
3.085930042E0,3.329881141E-1,-5.727774578E-1,-2.874152076E-1,7.221929118E-1
3.095853042E0,9.694723020E-1,-4.954877919E-1,-4.295034251E-1,1.170409282E0
3.105776042E0,1.475782121E0,-2.564571244E-1,-6.044030008E-1,1.615241812E0
3.115699042E0,1.838299551E0,-2.119264841E-2,-8.765441117E-1,2.036694368E0
3.125622042E0,2.062051005E0,1.500190884E-1,-1.158760852E0,2.370081599E0
3.135545042E0,2.144684149E0,2.671423262E-1,-1.360052420E0,2.553581350E0
3.145468042E0,2.087546327E0,2.788958144E-1,-1.280275934E0,2.464698564E0
3.155391042E0,1.908875882E0,4.708528876E-2,-7.713424695E-1,2.059367224E0
3.165314042E0,1.683637627E0,-4.027193767E-1,2.031717405E-2,1.731251381E0
3.175237042E0,1.548126212E0,-8.930277050E-1,6.408688688E-1,1.898659042E0
3.185160042E0,1.390208851E0,-1.388275761E0,7.992165850E-1,2.121022722E0
3.195083042E0,1.137214155E0,-1.791179325E0,4.740112612E-1,2.173997719E0
3.205006042E0,8.498432399E-1,-1.728839820E0,-1.624897376E-2,1.926495441E0
3.214929042E0,6.903529778E-1,-1.706587071E0,-3.006436560E-1,1.865318545E0
3.224852042E0,6.326932919E-1,-2.229070873E0,-4.118651529E-1,2.353442301E0
3.234775042E0,5.325686409E-1,-2.671037346E0,-7.503638291E-1,2.825086855E0
3.244698042E0,4.780014011E-1,-2.808063337E0,-1.605277921E0,3.269651701E0
3.254621042E0,4.781816415E-1,-2.750633154E0,-2.736015700E0,3.909018078E0
3.264544042E0,3.708934204E-1,-2.703825023E0,-3.881162480E0,4.744644758E0
3.274467042E0,2.562571496E-2,-2.842371874E0,-4.944968643E0,5.703722418E0
3.284390042E0,-5.094912887E-1,-3.024454170E0,-5.845096037E0,6.600912973E0
3.294313042E0,-9.364485437E-1,-3.012645133E0,-6.707753888E0,7.412619564E0
3.304236042E0,-1.289813620E0,-2.752868544E0,-7.783700041E0,8.356308438E0
3.314159042E0,-1.979268465E0,-2.141291302E0,-7.273469664E0,7.836197614E0
3.324082042E0,-2.804176692E0,-1.474568385E0,-4.782314891E0,5.736575159E0
3.334005042E0,-3.548393928E0,-8.977370524E-1,-2.170663036E0,4.255444666E0
3.343928042E0,-3.863947400E0,-3.005837220E-1,9.545029914E-1,3.991430325E0
3.353851042E0,-3.667882365E0,3.082049829E-1,4.608490033E0,5.898010829E0
3.363774042E0,-3.435525709E0,8.863519388E-1,6.772349249E0,7.645467351E0
3.373697042E0,-3.624104846E0,1.319573901E0,6.864550484E0,7.873846872E0
3.383620042E0,-4.266400143E0,1.278513583E0,5.527225606E0,7.098379397E0
3.393543042E0,-4.884337109E0,6.781039381E-1,3.754522898E0,6.197823500E0
3.403466042E0,-5.432394878E0,-1.888428462E-1,2.494543819E0,5.980746158E0
3.413389042E0,-5.831719362E0,-8.634922493E-1,1.928752030E0,6.202794045E0
3.423312042E0,-5.319167640E0,-1.141851289E0,1.662239449E0,5.688620987E0
3.433235042E0,-3.908421907E0,-8.540536737E-1,1.337294472E0,4.218237308E0
3.443158042E0,-2.284004880E0,-2.568640906E-1,8.740488855E-1,2.458987374E0
3.453081042E0,-1.395989846E0,4.301527584E-1,9.016957636E-1,1.716646235E0
3.463004042E0,-1.300567234E0,1.097845144E0,1.275322173E0,2.126778252E0
3.472927042E0,-1.768815479E0,1.672545751E0,1.456602376E0,2.836865871E0
3.482850042E0,-2.266286793E0,2.083907313E0,1.476711097E0,3.414586531E0
3.492773042E0,-2.586626064E0,2.309554288E0,1.484494618E0,3.772055100E0
3.502696042E0,-2.705665142E0,2.276609906E0,1.704033154E0,3.925214072E0
3.512619042E0,-2.736843958E0,2.098215449E0,2.029677457E0,4.001551387E0
3.522542042E0,-2.704082885E0,1.942696470E0,2.179296158E0,3.979380048E0
3.532465042E0,-2.606739024E0,1.847616650E0,2.069800905E0,3.806947782E0
3.542388042E0,-2.468217900E0,1.786430801E0,1.843448024E0,3.561142405E0
3.552311042E0,-2.240982967E0,1.687920420E0,1.642612977E0,3.251039433E0
3.562234042E0,-2.038700734E0,1.603070889E0,1.519863402E0,3.006014258E0
3.572157042E0,-2.013817323E0,1.585994681E0,1.475874507E0,2.957878445E0
3.582080042E0,-2.068015604E0,1.596183454E0,1.468897901E0,2.997023724E0
3.592003042E0,-2.086214916E0,1.699897272E0,1.426377972E0,3.045734318E0
3.601926042E0,-2.059729661E0,1.879612030E0,1.314335965E0,3.082678492E0
3.611849042E0,-2.002572543E0,2.074263500E0,1.204579049E0,3.124720234E0
3.621772042E0,-1.874070039E0,2.242215999E0,1.157646958E0,3.143217710E0
3.631695042E0,-1.712104212E0,2.279775589E0,1.031891914E0,3.032074948E0
3.641618042E0,-1.439519297E0,2.189611523E0,8.603851850E-1,2.758056761E0
3.651541042E0,-1.083374747E0,1.973877917E0,7.218343869E-1,2.364516812E0
3.661464042E0,-7.261298246E-1,1.714963208E0,6.624931879E-1,1.976679172E0
3.671387042E0,-3.167787552E-1,1.494374658E0,6.323108840E-1,1.653275976E0
3.681310042E0,5.781280987E-2,1.358853741E0,4.642176135E-1,1.437123448E0
3.691233042E0,3.604708316E-1,1.278108371E0,1.742363553E-1,1.339350042E0
3.701156042E0,7.518467561E-1,1.262230257E0,-1.506067336E-1,1.476882241E0
3.711079042E0,1.099436683E0,1.235713134E0,-6.160721429E-1,1.765019222E0
3.721002042E0,1.392350101E0,1.102744526E0,-1.058328491E0,2.067545281E0
3.730925042E0,1.617034917E0,9.223298568E-1,-1.359792073E0,2.305326174E0
3.740848042E0,1.820188531E0,7.589194751E-1,-1.598261554E0,2.538402067E0
3.750771042E0,2.136355229E0,5.728376842E-1,-1.585740327E0,2.721530647E0
3.760694042E0,2.388981843E0,2.626592660E-1,-1.642093452E0,2.910789419E0
3.770617042E0,2.480439166E0,-1.869922024E-1,-1.989696389E0,3.185347118E0
3.780540042E0,2.600009756E0,-6.753276801E-1,-2.596860738E0,3.736282096E0
3.790463042E0,2.712151751E0,-1.210232722E0,-3.613254168E0,4.677182490E0
3.800386042E0,2.900261941E0,-1.709816489E0,-4.580245643E0,5.684508941E0
3.810309042E0,3.030244960E0,-2.041934829E0,-5.024653913E0,6.212811707E0
3.820232042E0,2.692800683E0,-2.078315036E0,-4.970377718E0,6.022891628E0
3.830155042E0,1.795171511E0,-1.617722257E0,-4.695917602E0,5.281222224E0
3.840078042E0,6.222397859E-1,-7.166663253E-1,-4.058948826E0,4.168435983E0
3.850000042E0,-5.615614749E-1,3.183370382E-1,-3.090377433E0,3.157074982E0
3.859923542E0,-1.539307587E0,1.099339693E0,-2.013940115E0,2.762964060E0
3.869846542E0,-2.172352004E0,1.294493439E0,-1.381118184E0,2.881373619E0
3.879768542E0,-2.419792576E0,9.363386160E-1,-1.132838391E0,2.831156819E0
3.889691542E0,-2.572808801E0,-3.615859687E-2,-8.961957264E-1,2.724668668E0
3.899614542E0,-2.649318741E0,-1.690575641E0,-3.367960767E-1,3.160754243E0
3.909537542E0,-2.930145890E0,-3.607934371E0,7.786070502E-1,4.712661064E0
3.919460542E0,-3.777517366E0,-5.513008686E0,1.327412678E0,6.813583979E0
3.929383542E0,-4.531258547E0,-6.566133156E0,-1.318476963E-1,7.978959359E0
3.939306542E0,-3.872565026E0,-4.772032562E0,-2.535003628E0,6.647954426E0
3.949229542E0,-2.455047632E0,-5.390559804E-1,-3.012307749E0,3.923243326E0
3.959152542E0,-1.635217273E0,2.571784953E0,-1.823366493E0,3.551433337E0
3.969075542E0,-9.512348364E-1,4.103270720E0,-3.783774179E-1,4.229048095E0
3.978998542E0,-6.502162278E-2,5.076595899E0,1.084857309E0,5.191624901E0
3.988921542E0,7.950400651E-1,5.419339215E0,2.190386279E0,5.899077749E0
3.998844542E0,1.134721414E0,5.065228327E0,2.992310856E0,5.991498556E0
4.008767542E0,3.474562452E-1,4.032988942E0,4.244765738E0,5.865472003E0
4.018690542E0,-7.605667088E-1,2.112991948E0,5.406829097E0,5.854656060E0
4.028613542E0,-1.180464693E0,-3.019046080E-1,5.544725153E0,5.677025657E0
4.038536542E0,-1.087950340E0,-2.478946956E0,4.941345708E0,5.634333267E0
4.048459542E0,-5.059831055E-1,-3.829736803E0,4.383504378E0,5.842774470E0
4.058382542E0,5.249883105E-1,-3.804756328E0,3.712014810E0,5.341426531E0
4.068305542E0,1.540181015E0,-2.594164587E0,2.498528112E0,3.917204384E0
4.078228542E0,2.387418151E0,-9.561144841E-1,1.072343025E0,2.786366792E0
4.088151542E0,2.908208307E0,3.186755919E-1,5.284179948E-2,2.926093290E0
4.098074542E0,2.959169422E0,9.627925891E-1,-4.354441231E-1,3.142175174E0
4.107997542E0,2.294558958E0,9.758277869E-1,-8.139897215E-1,2.622941087E0
4.117920542E0,1.005356372E0,5.322878283E-1,-1.151233293E0,1.618459101E0
4.127843542E0,-5.209073194E-1,-9.515174031E-2,-1.219292471E0,1.329312762E0
4.137766542E0,-1.555359364E0,-5.681827158E-1,-1.035500450E0,1.953006792E0
4.147689542E0,-2.015463022E0,-7.156319529E-1,-6.647724326E-1,2.239674680E0
4.157612542E0,-2.063347187E0,-5.654292619E-1,-1.744458318E-1,2.146518859E0
4.167535542E0,-1.803468564E0,-1.401565897E-1,3.175248599E-1,1.836563304E0
4.177458542E0,-1.361787874E0,3.470977378E-1,6.426047610E-1,1.545277947E0
4.187381542E0,-8.846634091E-1,6.795873767E-1,8.604306471E-1,1.408832584E0
4.197304542E0,-5.190701243E-1,8.856906188E-1,9.261906271E-1,1.382646283E0
4.207227542E0,-1.976930456E-1,8.651762474E-1,7.930005562E-1,1.190152243E0
4.217150542E0,-2.072297081E-2,5.800373608E-1,5.165991640E-1,7.770118903E-1
4.227073542E0,8.911156654E-2,2.566763949E-1,3.066046000E-1,4.096706283E-1
4.236996542E0,2.036975513E-1,1.468528211E-2,2.488458037E-1,3.219201515E-1
4.246919542E0,1.898991457E-1,-1.193182826E-1,3.037751323E-1,3.775948478E-1
4.256842542E0,2.215844764E-1,-1.708351761E-1,3.718840849E-1,4.653838310E-1
4.266765542E0,3.153400478E-1,-9.098033667E-2,4.112995809E-1,5.261977885E-1
4.276688542E0,4.003097391E-1,6.811129153E-2,4.230220789E-1,5.863742103E-1
4.286611542E0,5.068349717E-1,1.510452747E-1,4.556733696E-1,6.980935348E-1
4.296534542E0,5.728540564E-1,2.062377280E-1,4.727508938E-1,7.708366740E-1
4.306457542E0,6.496395461E-1,1.596529609E-1,4.669754528E-1,8.158349596E-1
4.316380542E0,7.437278972E-1,1.082793242E-1,4.555242656E-1,8.788389805E-1
4.326303542E0,8.236151156E-1,7.654590011E-3,3.134440881E-1,8.812761473E-1
4.336226542E0,9.310072710E-1,-9.147501111E-2,7.930797860E-2,9.388460852E-1
4.346149542E0,1.049880288E0,-1.773092133E-1,-1.816170032E-1,1.080125878E0
4.356072542E0,1.134672663E0,-2.474073887E-1,-4.056225193E-1,1.230130926E0
4.365995542E0,1.053438246E0,-1.603300685E-1,-5.303297420E-1,1.190246825E0
4.375918542E0,9.560568890E-1,-8.453027308E-2,-5.851016343E-1,1.124070311E0
4.385841542E0,8.408457638E-1,2.271584809E-2,-5.931358548E-1,1.029246205E0
4.395764542E0,7.373435417E-1,1.448016179E-1,-5.313943738E-1,9.203385179E-1
4.405687542E0,6.612221494E-1,2.209183323E-1,-4.831337947E-1,8.481968545E-1
4.415610542E0,6.047480596E-1,2.524716622E-1,-4.482646550E-1,7.939794435E-1
4.425533542E0,5.320235342E-1,2.422197390E-1,-4.106259817E-1,7.143760492E-1
4.435456542E0,4.856599380E-1,2.213410860E-1,-4.065538345E-1,6.709273225E-1
4.445379542E0,5.055343316E-1,1.367488325E-1,-3.950988467E-1,6.560246202E-1
4.455302542E0,5.888941383E-1,3.867406905E-2,-3.987467784E-1,7.122436262E-1
4.465225542E0,6.966083291E-1,-4.564336538E-2,-4.060809410E-1,8.076188529E-1
4.475148542E0,7.792039047E-1,-1.490502048E-1,-4.112962188E-1,8.936102440E-1
4.485071542E0,8.211468597E-1,-2.350867206E-1,-4.088187535E-1,9.469322598E-1
4.494994542E0,8.439173792E-1,-2.766434669E-1,-4.028662880E-1,9.752073609E-1
4.504917542E0,8.256794751E-1,-2.553555089E-1,-4.350986257E-1,9.676072786E-1
4.514840542E0,8.106530079E-1,-2.021826839E-1,-5.126575559E-1,9.802315576E-1
4.524763542E0,7.994624604E-1,-1.386287123E-1,-6.072962031E-1,1.013492390E0
4.534686542E0,8.089380196E-1,-6.057364583E-2,-6.559839213E-1,1.043247234E0
4.544609542E0,7.860754064E-1,2.985003591E-3,-6.507518327E-1,1.020490766E0
4.554532542E0,7.816989116E-1,2.175982833E-2,-6.099613640E-1,9.917557885E-1
4.564455542E0,8.364361592E-1,-1.953379333E-2,-5.889048095E-1,1.023140211E0
4.574378542E0,9.488306075E-1,-1.148445779E-1,-6.011639357E-1,1.129100029E0
4.584301542E0,1.085120287E0,-2.794355124E-1,-6.622043355E-1,1.301570139E0
4.594224542E0,1.192858598E0,-4.724585330E-1,-7.321570614E-1,1.477221264E0
4.604147542E0,1.251571367E0,-6.074742508E-1,-7.825340402E-1,1.596187764E0
4.614070542E0,1.275023672E0,-6.510184658E-1,-7.116529226E-1,1.598737092E0
4.623993542E0,1.311846220E0,-6.424903017E-1,-5.869423378E-1,1.574241278E0
4.633916542E0,1.371521588E0,-5.570461088E-1,-4.728258844E-1,1.554006483E0
4.643839542E0,1.412788458E0,-4.759230083E-1,-3.630366629E-1,1.534362916E0
4.653762542E0,1.464516875E0,-5.157916635E-1,-3.071894677E-1,1.582787442E0
4.663685542E0,1.488160822E0,-6.527059722E-1,-3.279320267E-1,1.657765705E0
4.673608542E0,1.521779096E0,-8.386427522E-1,-4.240169826E-1,1.788553518E0
4.683531542E0,1.574325977E0,-9.840402013E-1,-5.676175824E-1,1.941398238E0
4.693454542E0,1.690293220E0,-1.131250872E0,-7.540835354E-1,2.169207617E0
4.703377542E0,1.855214084E0,-1.311342775E0,-9.475122066E-1,2.461547999E0
4.713300542E0,2.060352535E0,-1.624350661E0,-1.068779951E0,2.832994568E0
4.723223542E0,2.236578552E0,-2.114101165E0,-1.094175578E0,3.266332431E0
4.733146542E0,2.350956522E0,-2.642628064E0,-1.084003762E0,3.699397763E0
4.743069542E0,2.434056128E0,-2.943517011E0,-1.177825991E0,3.997023354E0
4.752992542E0,2.531092133E0,-2.954518547E0,-1.424219765E0,4.142946919E0
4.762915542E0,2.559846693E0,-2.917038479E0,-1.724648682E0,4.246921433E0
4.772838542E0,2.481919681E0,-3.090725343E0,-2.008506882E0,4.443715601E0
4.782761542E0,2.242509529E0,-3.353983948E0,-2.298968489E0,4.643631491E0
4.792684542E0,1.874303927E0,-3.445900424E0,-2.701779667E0,4.763072361E0
4.802607542E0,1.403945276E0,-3.260547781E0,-3.374421136E0,4.897851792E0
4.812530542E0,9.351834986E-1,-2.789008430E0,-4.439061112E0,5.325260534E0
4.822453542E0,4.670171142E-1,-2.187937465E0,-5.909700168E0,6.318997659E0
4.832376542E0,4.246321097E-2,-1.431772029E0,-7.215921367E0,7.356717709E0
4.842299542E0,-2.943733943E-1,-6.697938752E-1,-7.691575404E0,7.726293531E0
4.852222542E0,-5.306568937E-1,-9.499152660E-2,-6.971287898E0,6.992100906E0
4.862145667E0,-7.440470821E-1,2.527517438E-1,-5.164892364E0,5.224327960E0
4.872068667E0,-7.549971628E-1,3.862729132E-1,-2.758087184E0,2.885528097E0
4.881991667E0,-3.162798415E-1,3.017683679E-1,-6.077794755E-1,7.486607889E-1
4.891914667E0,4.062446630E-1,3.641178131E-2,1.248250734E0,1.313198552E0
4.901837667E0,1.183396341E0,-4.158849674E-1,3.839161345E0,4.038879428E0
4.911760667E0,1.911630506E0,-8.367003071E-1,6.529213836E0,6.854562854E0
4.921683667E0,2.508428033E0,-1.176867340E0,7.903012476E0,8.374654269E0
4.931606667E0,2.929317925E0,-1.565706012E0,7.630913465E0,8.322450308E0
4.941529667E0,2.889865299E0,-1.896323372E0,6.503226471E0,7.364734775E0
4.951452667E0,2.628363782E0,-2.057156886E0,5.335847408E0,6.293763435E0
4.961375667E0,2.067442723E0,-1.947116965E0,4.043013994E0,4.940804190E0
4.971298667E0,1.331412320E0,-1.646260178E0,2.643456030E0,3.386840876E0
4.981221667E0,7.836070043E-1,-1.210129811E0,1.545807352E0,2.113758375E0
4.991144667E0,3.087647076E-1,-6.620989394E-1,8.936298220E-1,1.154246468E0
5.001067667E0,-1.357542211E-1,1.832166553E-2,7.773753342E-1,7.893524575E-1
5.010990667E0,-4.387161519E-1,6.202644503E-1,1.396558488E0,1.589835042E0
5.020913667E0,-4.009046933E-1,1.110065825E0,2.440272303E0,2.710700946E0
5.030836667E0,-1.769167189E-1,1.361058142E0,3.069900776E0,3.362747324E0
5.040759667E0,1.578083105E-2,1.355210926E0,3.145868679E0,3.425395661E0
5.050682667E0,7.736260995E-2,1.267350079E0,3.146460710E0,3.392989271E0
5.060605667E0,2.062919609E-2,1.190794823E0,3.011940544E0,3.238858397E0
5.070528667E0,-1.165706029E-1,1.161286849E0,2.725883060E0,2.965234275E0
5.080451667E0,-3.199581056E-1,1.160772879E0,2.388180774E0,2.674541881E0
5.090374667E0,-3.288433152E-1,1.120835811E0,2.095865453E0,2.399388014E0
5.100297667E0,-2.854172871E-1,1.049425521E0,1.886520954E0,2.177548681E0
5.110220667E0,-4.000618903E-1,1.020533844E0,1.832985017E0,2.135737089E0
5.120143667E0,-6.814573894E-1,1.024224606E0,1.790033709E0,2.172013098E0
5.130066667E0,-1.154865510E0,1.061833313E0,1.676552117E0,2.296090445E0
5.139989667E0,-1.810969226E0,1.147137172E0,1.525427467E0,2.631057237E0
5.149912667E0,-2.409006071E0,1.234258347E0,1.296476376E0,3.001258887E0
5.159835667E0,-2.826585562E0,1.434098636E0,9.964229961E-1,3.322511644E0
5.169758667E0,-3.105413256E0,1.688773529E0,7.556511739E-1,3.614769179E0
5.179681667E0,-3.127012871E0,1.886607639E0,6.982437953E-1,3.718204173E0
5.189604667E0,-2.807879734E0,1.953750046E0,6.466903567E-1,3.481312434E0
5.199527667E0,-2.273631042E0,1.853473806E0,3.811590846E-1,2.958047585E0
5.209450667E0,-1.707829020E0,1.533796586E0,-1.853918195E-2,2.295551270E0
5.219373667E0,-1.202756692E0,1.091300356E0,-4.351215760E-1,1.681336050E0
5.229296667E0,-7.441532090E-1,6.563827014E-1,-6.622905819E-1,1.192992483E0
5.239219667E0,-2.427586330E-1,3.154432511E-1,-6.023803027E-1,7.220098529E-1
5.249142667E0,-3.228540123E-3,1.553763074E-1,-4.880437016E-1,5.121902723E-1
5.259065667E0,1.498846390E-1,2.235349613E-1,-5.483049600E-1,6.107958850E-1
5.268987667E0,2.764894294E-1,4.498216224E-1,-6.780687086E-1,8.593969223E-1
5.278910667E0,2.945637577E-1,6.871431488E-1,-7.146091287E-1,1.034214543E0
5.288834667E0,2.622441502E-1,8.699060601E-1,-4.134763531E-1,9.982340619E-1
5.298757667E0,4.576206386E-1,9.827976680E-1,-3.331532979E-1,1.134151235E0
5.308679667E0,9.689473683E-1,7.015425020E-1,-7.473794103E-1,1.410530704E0
5.318602667E0,1.311069710E0,2.182104868E-1,-6.445068602E-1,1.477128530E0
5.328525667E0,1.916227879E0,-1.427819896E-1,-3.838507041E-1,1.959504362E0
5.338449667E0,2.526746190E0,-3.752450645E-1,-1.801012588E-1,2.560799022E0
5.348371667E0,2.780673224E0,-4.788893008E-1,9.682302073E-2,2.823269955E0
5.358294667E0,2.770310789E0,-2.921584690E-1,4.203727055E-1,2.817213455E0
5.368217667E0,2.420397324E0,5.470128715E-2,6.234698939E-1,2.500006029E0
5.378140667E0,2.182334371E0,4.345831937E-1,5.088552578E-1,2.282625579E0
5.388063667E0,2.184477960E0,6.794359338E-1,9.438005403E-2,2.289647296E0
5.397986667E0,2.012755323E0,5.812541664E-1,-4.010827410E-1,2.133051279E0
5.407909667E0,1.643294032E0,2.971800578E-1,-8.173740900E-1,1.859255675E0
5.417832667E0,1.268070456E0,5.056321263E-2,-1.061017041E0,1.654181514E0
5.427755667E0,9.147895798E-1,-1.427352118E-1,-1.112900555E0,1.447674329E0
5.437678667E0,4.841072464E-1,-2.170486450E-1,-9.705195384E-1,1.106064245E0
5.447601667E0,-8.634729534E-3,-5.797865152E-2,-6.835792708E-1,6.860879697E-1
5.457524667E0,-4.567988124E-1,2.839676893E-1,-3.445097601E-1,6.387407756E-1
5.467447667E0,-1.079972106E0,6.495864826E-1,1.167115939E-1,1.265671342E0
5.477370667E0,-1.790365685E0,9.198950762E-1,6.287429130E-1,2.108775447E0
5.487293667E0,-2.590363604E0,8.666234332E-1,1.023476893E0,2.916937560E0
5.497216667E0,-3.773113243E0,-9.832210064E-2,1.340927786E0,4.005513464E0
5.507139667E0,-5.267853060E0,-2.324665248E0,1.895873137E0,6.062068898E0
5.517062667E0,-6.203720976E0,-4.841335516E0,2.333557109E0,8.207933498E0
5.526985667E0,-6.544980268E0,-6.549753351E0,1.929533218E0,9.458283888E0
5.536908667E0,-6.154077530E0,-7.115570283E0,-2.077077180E-3,9.407657254E0
5.546831667E0,-4.934546565E0,-6.219941152E0,-3.051411588E0,8.505793932E0
5.556754667E0,-3.146323300E0,-3.521385055E0,-5.143200363E0,6.982264173E0
5.566677667E0,-1.091161484E0,-1.996017230E-1,-4.543276037E0,4.676732982E0
5.576600667E0,5.129150527E-1,2.305381715E0,-1.881774476E0,3.019758580E0
5.586523667E0,1.613337430E0,4.268607759E0,7.473409648E-1,4.624109470E0
5.596446667E0,2.053196274E0,5.801575795E0,2.771541628E0,6.749469582E0
5.606369667E0,1.591213320E0,6.696742997E0,4.401285760E0,8.170045467E0
5.616292667E0,5.323938822E-1,6.574840829E0,5.960359275E0,8.890323834E0
5.626215667E0,-4.758744033E-1,5.308794095E0,6.860208342E0,8.687474298E0
5.636138667E0,-8.326266982E-1,3.215398505E0,7.008374448E0,7.755602308E0
5.646061667E0,-3.491033328E-1,1.144991829E0,6.824409349E0,6.928595990E0
5.655984667E0,1.047594465E-1,-2.770673901E-1,6.228966329E0,6.236005325E0
5.665907667E0,3.292716238E-1,-1.265656140E0,5.452809262E0,5.607444527E0
5.675830667E0,5.500437757E-1,-1.909022940E0,4.690945129E0,5.094299063E0
5.685753667E0,1.185621353E0,-2.657699847E0,2.471001760E0,3.817710854E0
5.695676667E0,2.618914096E0,-3.663863574E0,-1.720740842E0,4.821157161E0
5.705599667E0,3.717731048E0,-3.478944794E0,-3.341524701E0,6.090186233E0
5.715522667E0,3.882589200E0,-2.258681758E0,-2.571625324E0,5.175847659E0
5.725445667E0,3.010887460E0,-9.068692338E-1,-1.636301200E0,3.544761871E0
5.735368667E0,1.756618041E0,-7.946775377E-2,-5.476502180E-1,1.841722788E0
5.745291667E0,1.029892458E0,1.110935891E-1,2.035345602E-1,1.055673519E0
5.755214667E0,7.434228918E-1,-1.446905208E-1,7.333320594E-1,1.054224289E0
5.765137667E0,5.000097361E-1,-4.685262805E-1,1.230153601E0,1.408120909E0
5.775060667E0,7.229497433E-2,-5.919779599E-1,1.606351177E0,1.713484337E0
5.784983667E0,-3.391794384E-1,-5.132060248E-1,1.514300800E0,1.634481578E0
5.794906667E0,-4.994811478E-1,-3.556855434E-1,8.529906499E-1,1.050517335E0
5.804829667E0,-5.177273843E-1,-1.412962121E-1,6.128466725E-2,5.401500481E-1
5.814752667E0,-5.257349999E-1,2.205634063E-1,-5.772956379E-1,8.113666002E-1
5.824675667E0,-4.588731122E-1,5.412457627E-1,-1.162545170E0,1.361992211E0
5.834598667E0,-3.373859511E-1,7.724803376E-1,-1.456483532E0,1.682824836E0
5.844521667E0,-2.141117348E-1,8.918272716E-1,-1.244867535E0,1.546251886E0
5.854444167E0,-2.958580023E-1,8.525988865E-1,-5.914400160E-1,1.079007929E0
5.864367167E0,-4.420552044E-1,6.454489928E-1,2.950066112E-1,8.360897719E-1
5.874290167E0,-3.064591505E-1,4.495187366E-1,1.270696440E0,1.382263994E0
5.884213167E0,5.149087340E-2,3.605235296E-1,2.058936778E0,2.090896741E0
5.894136167E0,4.849404381E-1,2.890343016E-1,2.546904466E0,2.608721989E0
5.904059167E0,9.925778671E-1,2.296505642E-1,2.812349346E0,2.991196925E0
5.913982167E0,1.618287391E0,1.342748755E-1,2.695900877E0,3.147183718E0
5.923905167E0,2.122854885E0,-1.321616918E-1,2.231256562E0,3.082610164E0
5.933828167E0,2.369677114E0,-3.604527783E-1,1.798195399E0,2.996465004E0
5.943751167E0,2.414415476E0,-5.572612864E-1,1.415613833E0,2.853752750E0
5.953674167E0,2.174916885E0,-6.649155432E-1,1.099820407E0,2.526258313E0
5.963597167E0,1.673016160E0,-6.289317781E-1,8.632356296E-1,1.984871282E0
5.973520167E0,1.025431471E0,-4.385236323E-1,7.060232234E-1,1.319955102E0
5.983443167E0,2.986580877E-1,-2.236209154E-1,6.138810450E-1,7.183682235E-1
5.993366167E0,-3.656975846E-1,-3.593581796E-2,4.919432829E-1,6.140311881E-1
6.003289167E0,-7.423335555E-1,1.081705660E-1,3.718530947E-1,8.372781515E-1
6.013212167E0,-8.930949479E-1,1.774624103E-1,2.794108810E-1,9.524609879E-1
6.023135167E0,-8.498805159E-1,2.368022937E-1,1.987216439E-1,9.043575119E-1
6.033058167E0,-7.304534751E-1,2.822597176E-1,2.082250504E-1,8.103027207E-1
6.042981167E0,-6.702522969E-1,2.746080512E-1,2.418657631E-1,7.636404721E-1
6.052904167E0,-5.235360083E-1,1.806748706E-1,2.449666147E-1,6.055922747E-1
6.062827167E0,-2.308524594E-1,4.014815211E-2,1.448723692E-1,2.754863617E-1
6.072750167E0,2.801893647E-1,-5.490301609E-2,-3.844558910E-2,2.880945758E-1
6.082673167E0,8.745940652E-1,-9.833730340E-2,-3.474972488E-1,9.462237273E-1
6.092596167E0,1.432470479E0,-8.067403436E-2,-6.883408047E-1,1.591318018E0
6.102519167E0,1.902046188E0,-9.924420655E-2,-1.038823934E0,2.169512452E0
6.112442167E0,2.235442438E0,-2.473962790E-1,-1.406348481E0,2.652588144E0
6.122365167E0,2.396612898E0,-5.291478735E-1,-1.750103074E0,3.014400707E0
6.132288167E0,2.389909942E0,-8.454202598E-1,-1.985571033E0,3.220077215E0
6.142211167E0,2.167384648E0,-1.148418297E0,-2.084926482E0,3.219214071E0
6.152134167E0,1.588242204E0,-1.295696796E0,-1.934164213E0,2.818214805E0
6.162057167E0,8.217410830E-1,-1.259492590E0,-1.550615664E0,2.160090028E0
6.171980167E0,1.752723357E-1,-1.321831511E0,-1.099133871E0,1.728020312E0
6.181903167E0,-1.086038446E-1,-1.751272078E0,-7.150435768E-1,1.894739033E0
6.191826167E0,2.929352716E-2,-2.582124585E0,-3.415675874E-1,2.604782889E0
6.201749167E0,4.565774953E-1,-3.454868883E0,4.961947203E-3,3.484911280E0
6.211672167E0,1.065236100E0,-3.975674534E0,2.238419402E-1,4.121992378E0
6.221595167E0,1.828429305E0,-3.945928579E0,1.131518090E-1,4.350437841E0
6.231518167E0,2.742401151E0,-3.802373587E0,-3.905909358E-1,4.704399032E0
6.241441167E0,3.410009630E0,-3.651673883E0,-1.314353945E0,5.166276620E0
6.251364167E0,3.680301851E0,-3.396836438E0,-2.887329361E0,5.780985240E0
6.261287167E0,3.519235033E0,-2.793979733E0,-4.858221105E0,6.617677106E0
6.271210167E0,3.113328632E0,-2.194271169E0,-6.562352931E0,7.587629216E0
6.281133167E0,2.538890272E0,-1.772992145E0,-7.296270297E0,7.926223893E0
6.291056167E0,1.946936286E0,-1.510533439E0,-6.882761053E0,7.310586289E0
6.300979167E0,1.494593491E0,-1.262140210E0,-5.663998997E0,5.992302750E0
6.310902167E0,1.534308802E0,-9.673879158E-1,-3.773212938E0,4.186535412E0
6.320825167E0,1.967212676E0,-6.048810107E-1,-1.396043787E0,2.486914756E0
6.330748167E0,2.813940373E0,-2.937418950E-1,7.452592099E-1,2.925740251E0
6.340671167E0,3.651027766E0,-2.797682190E-1,2.510335979E0,4.439601416E0
6.350594167E0,4.173646054E0,-4.311970711E-1,4.446892873E0,6.113927422E0
6.360517167E0,4.335623868E0,-5.083393872E-1,6.392104815E0,7.740481072E0
6.370440167E0,4.166917955E0,-3.606246865E-1,8.126174970E0,9.139364039E0
6.380363167E0,3.908678599E0,-1.000218862E-1,9.538165283E0,1.030846108E1
6.390286167E0,3.622696252E0,-7.181199431E-2,1.032036369E1,1.093796105E1
6.400209167E0,3.217934443E0,-4.888313216E-1,1.021394203E1,1.072001259E1
6.410132167E0,2.324354322E0,-1.476764599E0,8.763082935E0,9.185590847E0
6.420055167E0,9.151962537E-1,-2.448483548E0,6.254208759E0,6.778479407E0
6.429978167E0,-1.999714863E-1,-2.891770906E0,4.185286106E0,5.091065444E0
6.439901167E0,-8.485743941E-1,-2.769740101E0,3.145961065E0,4.276518415E0
6.449824167E0,-1.237962558E0,-2.278389798E0,2.450403188E0,3.567644483E0
6.459747167E0,-1.411783322E0,-1.429914953E0,2.329640790E0,3.076526472E0
6.469670167E0,-1.326309747E0,-7.024798107E-1,3.056426160E0,3.405042775E0
6.479593167E0,-1.280282950E0,-1.062877625E-1,4.068672745E0,4.266675454E0
6.489516167E0,-1.551691844E0,4.522406155E-1,4.703738837E0,4.973673512E0
6.499439167E0,-2.232055584E0,9.704261291E-1,4.971295731E0,5.535122424E0
6.509362167E0,-3.078905489E0,1.504365796E0,4.796187994E0,5.894590294E0
6.519285167E0,-3.722193643E0,1.984639717E0,4.317525566E0,6.036103655E0
6.529208167E0,-4.041725560E0,2.270634052E0,3.849614997E0,6.025849328E0
6.539131167E0,-3.985379743E0,2.229935676E0,3.385812682E0,5.685032307E0
6.549054167E0,-3.719629639E0,1.879199801E0,2.890190989E0,5.071512644E0
6.558977167E0,-3.497526076E0,1.421633542E0,2.419166339E0,4.483982198E0
6.568900167E0,-3.271131534E0,1.100131990E0,2.074652778E0,4.026757512E0
6.578823167E0,-3.306892812E0,9.692122471E-1,1.859513834E0,3.915699701E0
6.588746167E0,-3.590595915E0,1.066431563E0,1.511625699E0,4.039141933E0
6.598669167E0,-3.973869499E0,1.359605693E0,1.246132726E0,4.380983132E0
6.608592167E0,-4.290828933E0,1.608543298E0,1.348255663E0,4.776653411E0
6.618515167E0,-3.934737301E0,1.885518302E0,1.502970650E0,4.614786850E0
6.628438167E0,-3.160700142E0,2.124491667E0,1.313622751E0,4.028535089E0
6.638361167E0,-2.281665993E0,1.996053482E0,9.674383481E-1,3.182163755E0
6.648284167E0,-1.503184951E0,1.389661551E0,6.992847459E-1,2.163266830E0
6.658207167E0,-9.241188124E-1,5.063501644E-1,3.491829280E-1,1.110096746E0
6.668130167E0,-4.960070246E-1,-3.621028626E-1,3.449857235E-3,6.141281243E-1
6.678053167E0,-2.287415962E-1,-1.171745179E0,-4.158234986E-1,1.264206734E0
6.687976167E0,7.403627515E-2,-1.664226333E0,-6.203650224E-1,1.777634219E0
6.697899167E0,4.059613654E-1,-1.572652504E0,-5.430215621E-1,1.712574946E0
6.707822167E0,4.337517196E-1,-8.609861326E-1,-2.217942452E-1,9.892574802E-1
6.717745167E0,3.259945518E-1,2.491416728E-1,3.380626933E-1,5.316299517E-1
6.727668167E0,9.964415610E-2,1.345160732E0,1.012508540E0,1.686582312E0
6.737591167E0,-2.946394060E-1,2.146884164E0,1.608405304E0,2.698683312E0
6.747514167E0,-8.788683799E-1,2.635842955E0,2.188502891E0,3.536894488E0
6.757437167E0,-1.620671008E0,2.807673912E0,2.812454596E0,4.291795448E0
6.767360167E0,-2.518384087E0,2.654213737E0,3.190873529E0,4.854769083E0
6.777283167E0,-3.435073720E0,2.194054238E0,3.282100618E0,5.233143407E0
6.787206167E0,-4.088466155E0,1.558284141E0,3.120731499E0,5.374269258E0
6.797129167E0,-4.481898107E0,9.086678374E-1,2.773681709E0,5.348494938E0
6.807052167E0,-4.630322075E0,3.471532863E-1,2.445711383E0,5.248037927E0
6.816975167E0,-4.587914851E0,-2.955884457E-2,1.975290020E0,4.995158362E0
6.826898167E0,-4.473049808E0,-1.650470173E-1,1.291067555E0,4.658569580E0
6.836821167E0,-4.271721694E0,-1.567556655E-1,4.195517564E-1,4.295137046E0
6.846744167E0,-3.877937448E0,-3.098053658E-1,-5.095368969E-1,3.923519601E0
6.856667417E0,-2.931058348E0,-6.291826236E-1,-1.159291195E0,3.214176394E0
6.866590417E0,-1.380705956E0,-8.580502456E-1,-1.108690560E0,1.967687454E0
6.876513417E0,5.106563464E-2,-8.052504730E-1,1.132958332E-2,8.069475713E-1
6.886436417E0,7.147648839E-1,-6.492555302E-1,1.604277170E0,1.872465439E0
6.896359417E0,6.085039455E-1,-6.531129384E-1,2.777619224E0,2.917533567E0
6.906282417E0,2.669932222E-1,-7.286262202E-1,3.184442176E0,3.277629253E0
6.916205417E0,2.326857077E-1,-6.527223444E-1,2.950939466E0,3.031209797E0
6.926128417E0,5.773488110E-1,-4.663961399E-1,2.531053249E0,2.637629155E0
6.936051417E0,1.014750801E0,-2.947873771E-1,2.112311917E0,2.361880696E0
6.945974417E0,1.456714935E0,-2.675101161E-1,1.536872807E0,2.134375339E0
6.955897417E0,1.900225219E0,-5.122342175E-1,6.391989040E-1,2.069254701E0
6.965820417E0,2.259613804E0,-8.595518106E-1,-4.100535393E-1,2.452106801E0
6.975743417E0,2.188406997E0,-9.094466865E-1,-1.295138386E0,2.700666936E0
6.985666417E0,1.726983329E0,-8.134476846E-1,-1.641119306E0,2.517427483E0
6.995589417E0,1.030459200E0,-8.621099675E-1,-1.274259149E0,1.851706277E0
7.005512417E0,2.251775904E-1,-1.028733394E0,-4.508530712E-1,1.145541721E0
7.015435417E0,-3.610160114E-1,-1.191087184E0,4.492544425E-1,1.323197186E0
7.025358417E0,-5.628804606E-1,-1.306366210E0,1.152540584E0,1.830785866E0
7.035281417E0,-5.638649856E-1,-1.204722306E0,1.480906767E0,1.990573889E0
7.045204417E0,-5.181580317E-1,-9.001782650E-1,1.394760908E0,1.739013124E0
7.055127417E0,-5.609881555E-1,-4.977483255E-1,1.110077519E0,1.339676530E0
7.065050417E0,-7.252535462E-1,-1.048300517E-1,6.856760824E-1,1.003560529E0
7.074973417E0,-8.276752760E-1,2.602478743E-2,8.987174112E-2,8.329469262E-1
7.084896417E0,-7.305446917E-1,-1.688862991E-1,-6.550723404E-1,9.956595300E-1
7.094819417E0,-4.788230811E-1,-4.948416746E-1,-1.338798376E0,1.505496901E0
7.104742417E0,-2.697374667E-1,-7.574681962E-1,-1.780881793E0,1.953984732E0
7.114665417E0,-2.381496383E-1,-8.630648178E-1,-1.960750333E0,2.155490199E0
7.124588417E0,-3.126607074E-1,-8.999309278E-1,-1.956049172E0,2.175720744E0
7.134511417E0,-4.264621420E-1,-7.906996769E-1,-1.715007062E0,1.936059183E0
7.144434417E0,-5.213358472E-1,-5.542628342E-1,-1.262657104E0,1.474212100E0
7.154357417E0,-5.906209673E-1,-1.863589489E-1,-6.753931689E-1,9.163616740E-1
7.164280417E0,-7.671847337E-1,3.299648112E-1,-6.162146688E-2,8.374045602E-1
7.174203417E0,-9.726192735E-1,7.928713328E-1,5.729651535E-1,1.379464486E0
7.184126417E0,-1.112694441E0,1.098579555E0,1.120330027E0,1.923565784E0
7.194049417E0,-1.117998669E0,1.252319811E0,1.582413261E0,2.307001877E0
7.203972417E0,-1.063246511E0,1.187513950E0,1.848400762E0,2.440751504E0
7.213895417E0,-9.466007718E-1,9.186987358E-1,1.961018136E0,2.363398510E0
7.223818417E0,-6.732242905E-1,6.134501052E-1,2.052094367E0,2.245137694E0
7.233741417E0,-2.141719611E-1,3.226429278E-1,2.193739657E0,2.227658361E0
7.243664417E0,3.662121396E-1,1.691254503E-1,2.315766370E0,2.350635793E0
7.253587417E0,8.915894361E-1,2.645221889E-1,2.308437470E0,2.488732060E0
7.263510417E0,1.169597936E0,4.513512540E-1,2.091105820E0,2.438114197E0
7.273433417E0,1.189840265E0,5.209003758E-1,1.657132491E0,2.105503538E0
7.283356417E0,9.779609974E-1,4.559196836E-1,9.564033365E-1,1.441866087E0
7.293279417E0,6.064594665E-1,2.384716737E-1,1.733488941E-1,6.743231145E-1
7.303202417E0,2.282261825E-1,3.712981939E-3,-4.321852505E-1,4.887587005E-1
7.313125417E0,-1.618363112E-2,-1.928797638E-1,-7.166253217E-1,7.423047656E-1
7.323048417E0,5.474455655E-4,-3.283077103E-1,-7.078826380E-1,7.803102469E-1
7.332971417E0,3.142548046E-1,-3.804841697E-1,-5.907687557E-1,7.697610072E-1
7.342894417E0,7.843105705E-1,-4.248230213E-1,-5.995500676E-1,1.074745530E0
7.352817417E0,1.231567896E0,-4.354070663E-1,-8.599909365E-1,1.563944759E0
7.362740417E0,1.550168498E0,-5.118360221E-1,-1.303891668E0,2.089289824E0
7.372663417E0,1.764590866E0,-6.921489501E-1,-1.676882046E0,2.530767570E0
7.382586417E0,1.955306868E0,-8.523831242E-1,-1.803766626E0,2.793448761E0
7.392509417E0,2.077015638E0,-9.988968068E-1,-1.667983754E0,2.844988329E0
7.402432417E0,2.026655178E0,-9.779760540E-1,-1.369696233E0,2.634356875E0
7.412355417E0,1.998788225E0,-8.399671465E-1,-9.279893768E-1,2.358360333E0
7.422278417E0,1.951343479E0,-6.383136356E-1,-3.248000387E-1,2.078624722E0
7.432201417E0,1.823515743E0,-3.910758162E-1,2.823455986E-1,1.886231427E0
7.442124417E0,1.693237147E0,-2.058038646E-1,7.632627869E-1,1.868683320E0
7.452047417E0,1.662318533E0,-8.301876783E-2,1.188958871E0,2.045438392E0
7.461970417E0,1.605619837E0,-7.312527895E-3,1.500313529E0,2.197500675E0
7.471893417E0,1.406985389E0,7.097935081E-2,1.686533461E0,2.197507922E0
7.481816417E0,1.086816272E0,9.922315657E-2,1.775150353E0,2.083788286E0
7.491739417E0,8.365188973E-1,4.618774116E-2,1.795400430E0,1.981252098E0
7.501662417E0,6.192704237E-1,-5.162682116E-2,1.794842606E0,1.899373888E0
7.511585417E0,3.645158623E-1,-1.359150195E-1,1.731190985E0,1.774363811E0
7.521508417E0,2.357597351E-1,-1.412459260E-1,1.732866797E0,1.754525691E0
7.531431417E0,1.404068506E-1,-1.543963140E-1,1.791509693E0,1.803623931E0
7.541354417E0,7.145984575E-2,-1.629928905E-1,1.844464417E0,1.853030538E0
7.551277417E0,6.062100828E-3,-1.252128607E-1,1.785794624E0,1.790189222E0
7.561200417E0,-8.521878272E-2,-1.265314078E-1,1.748957165E0,1.755597791E0
7.571123417E0,-1.265252683E-1,-1.636816925E-1,1.778893740E0,1.790883379E0
7.581046417E0,-5.273209110E-2,-9.740701139E-2,1.855266563E0,1.858570100E0
7.590969417E0,8.897094101E-2,1.949169338E-2,1.994072299E0,1.996151319E0
7.600892417E0,3.202843072E-1,1.026051861E-1,2.177340556E0,2.203161764E0
7.610815417E0,6.013659570E-1,5.515970886E-2,2.295041353E0,2.373162114E0
7.620738417E0,8.922854009E-1,-2.052314222E-2,2.345167194E0,2.509263558E0
7.630661417E0,1.078545240E0,4.875993133E-3,2.310536474E0,2.549874979E0
7.640584417E0,1.133673958E0,1.528356922E-1,2.209437239E0,2.488008904E0
7.650508417E0,9.603154162E-1,4.673047972E-1,1.959748120E0,2.231858456E0
7.660431417E0,5.451174966E-1,8.147603846E-1,1.574932333E0,1.855100920E0
7.670354417E0,-1.809257162E-1,1.054761690E0,8.986455636E-1,1.397433428E0
7.680277417E0,-1.105506312E0,9.816036665E-1,-1.229830250E-1,1.483514337E0
7.690199417E0,-1.897155139E0,4.940569782E-1,-1.334795226E0,2.371701544E0
7.700123417E0,-2.376792298E0,-5.416041970E-1,-2.702631022E0,3.639600414E0
7.710046417E0,-2.154112492E0,-1.818120956E0,-4.104346608E0,4.979098866E0
7.719969417E0,-6.774715617E-1,-2.543434728E0,-5.173108871E0,5.804229779E0
7.729892417E0,1.390018816E0,-2.800580070E0,-5.278936458E0,6.135354200E0
7.739815417E0,3.137900679E0,-2.862175224E0,-4.400545503E0,6.115821156E0
7.749738417E0,4.216798798E0,-2.601436769E0,-3.209919080E0,5.903596011E0
7.759661417E0,4.376693248E0,-1.894677381E0,-2.165440157E0,5.237783619E0
7.769584417E0,3.632805503E0,-1.190508894E0,-1.387638853E0,4.066955721E0
7.779507417E0,2.732357681E0,-9.763177836E-1,-8.273796992E-1,3.017206006E0
7.789430417E0,2.111870452E0,-9.886296809E-1,-6.937838316E-1,2.432842259E0
7.799353417E0,1.548660501E0,-9.619424039E-1,-9.489444821E-1,2.055280556E0
7.809276417E0,7.623667011E-1,-9.874684238E-1,-1.352312461E0,1.839849414E0
7.819199417E0,4.112998733E-1,-1.084197158E0,-1.844841123E0,2.179011206E0
7.829122417E0,5.525646566E-1,-1.260629289E0,-2.401799816E0,2.768240644E0
7.839045417E0,1.175375862E0,-1.370500225E0,-3.200417062E0,3.674567819E0
7.848968417E0,2.096954497E0,-1.341389862E0,-4.108195245E0,4.803520907E0
7.858892208E0,3.009986989E0,-1.177553803E0,-4.296317714E0,5.376337093E0
7.868815208E0,3.726427612E0,-9.448638564E-1,-3.300011809E0,5.066469026E0
7.878738208E0,4.078727033E0,-6.868005019E-1,-1.490606128E0,4.396545890E0
7.888661208E0,4.086528972E0,-3.710590428E-1,2.732427263E-1,4.112428169E0
7.898584208E0,3.828966432E0,-4.599478304E-2,1.197092274E0,4.011998177E0
7.908507208E0,3.129343278E0,3.567380422E-1,1.475669854E0,3.478168038E0
7.918430208E0,1.775368600E0,7.585347283E-1,1.166419097E0,2.255624550E0
7.928353208E0,4.679376121E-1,9.810499352E-1,3.716456647E-1,1.148714536E0
7.938276208E0,-7.313400592E-1,9.672791576E-1,6.150189131E-2,1.214195097E0
7.948199208E0,-1.782095822E0,8.183078903E-1,2.722359820E-1,1.979799422E0
7.958122208E0,-2.390503873E0,7.484547132E-1,1.156580133E0,2.759052524E0
7.968045208E0,-2.398284909E0,8.257122195E-1,2.206748543E0,3.362039605E0
7.977968208E0,-1.856220828E0,9.671095884E-1,2.510434213E0,3.268506793E0
7.987891208E0,-1.085247464E0,1.079527572E0,2.669268856E0,3.077033971E0
7.997814208E0,-2.806526104E-1,1.128705579E0,2.738683784E0,2.975421153E0
8.007737208E0,2.773329999E-1,1.111694859E0,2.641295191E0,2.879100440E0
8.017660208E0,5.071339837E-1,1.094987610E0,2.281644359E0,2.581101262E0
8.027583208E0,4.709832074E-1,1.098892381E0,1.682730139E0,2.064211803E0
8.037506208E0,2.986444929E-1,1.052746739E0,1.025656589E0,1.499811878E0
8.047429208E0,-6.994388200E-2,9.545702344E-1,7.035437116E-1,1.187884773E0
8.057352208E0,-4.035455517E-1,9.002273816E-1,8.332400711E-1,1.291335497E0
8.067275208E0,-5.609491984E-1,9.049338055E-1,1.132189204E0,1.554162665E0
8.077198208E0,-4.658377308E-1,9.142402339E-1,1.355555327E0,1.700108891E0
8.087121208E0,-3.535513097E-1,7.806015354E-1,1.462334840E0,1.694921966E0
8.097044208E0,-1.861619343E-1,6.606856674E-1,1.368086933E0,1.530628523E0
8.106967208E0,-6.299205422E-2,5.997091484E-1,1.089952573E0,1.245638660E0
8.116890208E0,-1.337477490E-1,5.812056345E-1,7.772773933E-1,9.797186311E-1
8.126813208E0,-3.142545122E-1,6.656119466E-1,4.932687736E-1,8.860639056E-1
8.136736208E0,-5.825937635E-1,8.159157944E-1,2.976722471E-1,1.045821612E0
8.146659208E0,-9.031685311E-1,9.566459960E-1,1.270412850E-1,1.321750523E0
8.156582208E0,-1.165378146E0,1.101680918E0,-5.037975624E-2,1.604476609E0
8.166505208E0,-1.354024818E0,1.200187790E0,-2.118585102E-1,1.821734879E0
8.176428208E0,-1.569051788E0,1.214244497E0,-3.370428658E-1,2.012439094E0
8.186351208E0,-1.743523056E0,1.238100552E0,-4.033514607E-1,2.176110756E0
8.196274208E0,-1.947894645E0,1.291945222E0,-4.340214224E-1,2.377349490E0
8.206197208E0,-2.170938732E0,1.342233031E0,-4.295949340E-1,2.588265113E0
8.216120208E0,-2.300157813E0,1.391764795E0,-4.272430377E-1,2.722181445E0
8.226043208E0,-2.213705852E0,1.424909737E0,-5.679505813E-1,2.693219119E0
8.235966208E0,-1.999381425E0,1.340902205E0,-8.391010277E-1,2.549438240E0
8.245889208E0,-1.816063028E0,1.137899741E0,-8.637832944E-1,2.310632451E0
8.255812208E0,-1.486177154E0,8.876775026E-1,-9.125889802E-1,1.956914032E0
8.265735208E0,-1.190897734E0,5.772880000E-1,-9.750968119E-1,1.643871236E0
8.275658208E0,-8.195422375E-1,2.684632123E-1,-9.972239184E-1,1.318399605E0
8.285581208E0,-3.968876196E-1,1.391415131E-1,-1.000258696E0,1.085079538E0
8.295504208E0,-7.646031149E-2,1.451185369E-1,-1.023595884E0,1.036655248E0
8.305427208E0,1.655100437E-1,1.718414819E-1,-1.067875679E0,1.094203608E0
8.315350208E0,4.581205390E-1,5.973983288E-2,-1.246322322E0,1.329196226E0
8.325273208E0,6.486716858E-1,-1.864413947E-1,-1.469869562E0,1.617421367E0
8.335196208E0,9.261969128E-1,-4.018095499E-1,-1.406670517E0,1.731477282E0
8.345119208E0,1.180503431E0,-5.371509576E-1,-1.153201904E0,1.735509762E0
8.355042208E0,1.205878008E0,-6.106943125E-1,-1.027484429E0,1.697885027E0
8.364965208E0,9.113280281E-1,-6.946135515E-1,-1.243530861E0,1.690968883E0
8.374888208E0,5.983566874E-1,-7.412579602E-1,-1.674396980E0,1.926421380E0
8.384811208E0,4.507203029E-1,-6.574550807E-1,-1.985268878E0,2.139319633E0
8.394734208E0,3.785350369E-1,-3.368768048E-1,-2.017627369E0,2.080287229E0
8.404657208E0,2.069981401E-1,4.683853626E-2,-2.009368762E0,2.020545693E0
8.414580208E0,-1.047429464E-1,3.557709128E-1,-2.120271732E0,2.152462832E0
8.424503208E0,-5.423561490E-1,4.735724276E-1,-2.233230582E0,2.346431305E0
8.434426208E0,-1.155494598E0,2.374875873E-1,-1.730174739E0,2.094056529E0
8.444349208E0,-2.221359858E0,-4.957801527E-1,-2.510654068E-1,2.289819079E0
8.454272208E0,-4.005449726E0,-1.938727965E0,2.208464701E0,4.967857683E0
8.464195208E0,-5.839867457E0,-3.729237784E0,4.460513377E0,8.240597426E0
8.474118208E0,-6.732130346E0,-5.445352308E0,4.352024723E0,9.690900884E0
8.484041208E0,-6.707341075E0,-7.054031262E0,6.463675904E-1,9.755284332E0
8.493964208E0,-4.634597559E0,-7.216411949E0,-4.332230144E0,9.608554208E0
8.503887208E0,-1.329617371E0,-4.013814168E0,-4.621647438E0,6.264041153E0
8.513810208E0,-8.437023479E-1,-2.777965379E-1,-6.796095961E-1,1.118424683E0
8.523733208E0,-1.383651783E0,2.117745734E0,1.929888144E0,3.181793127E0
8.533656208E0,-1.377035658E0,4.154190028E0,2.749188307E0,5.168322585E0
8.543579208E0,-1.315753038E0,5.689229148E0,2.358249900E0,6.297608828E0
8.553502208E0,-1.617943574E0,6.483206189E0,9.422191608E-1,6.748146475E0
8.563425208E0,-2.438854645E0,5.735331520E0,2.587159038E-2,6.232391913E0
8.573348208E0,-3.116118631E0,2.684934424E0,8.965103066E-1,4.209845473E0
8.583271208E0,-2.571258704E0,-1.215998662E-1,2.239038622E0,3.411664081E0
8.593194208E0,-1.308079737E0,-1.600408652E0,3.056510945E0,3.689802109E0
8.603117208E0,-4.787913600E-1,-2.428781354E0,3.335672808E0,4.153905766E0
8.613040208E0,-2.124556571E-2,-2.761579726E0,3.529364750E0,4.481427172E0
8.622963208E0,3.590503237E-1,-2.256438766E0,3.117334267E0,3.864997538E0
8.632886208E0,1.123395430E0,-1.352010745E0,2.082892236E0,2.725507368E0
8.642809208E0,2.243131380E0,-5.470847923E-1,5.228662097E-1,2.367346454E0
8.652732208E0,3.403127457E0,5.979245782E-2,-7.938197511E-1,3.494996627E0
8.662655208E0,3.898460005E0,4.915064228E-1,-1.247679461E0,4.122653637E0
8.672578208E0,3.779517991E0,6.139500421E-1,-1.146474244E0,3.997010644E0
8.682501208E0,3.372621363E0,4.012511408E-1,-8.539894275E-1,3.502124395E0
8.692424208E0,2.782004051E0,-4.671749890E-2,-5.643136863E-1,2.839045438E0
8.702347208E0,2.085794502E0,-4.813568258E-1,-3.656861094E-1,2.171628289E0
8.712270208E0,1.292126778E0,-7.393242860E-1,-3.069793334E-1,1.520009316E0
8.722193208E0,7.060709513E-1,-7.034481096E-1,-1.703908608E-1,1.011142164E0
8.732116208E0,3.946472955E-1,-2.938091379E-1,4.136086464E-2,4.937418541E-1
8.742039208E0,2.772094774E-1,2.969818372E-1,1.904344583E-1,4.486742570E-1
8.751962208E0,1.752477043E-1,8.344625777E-1,2.734913061E-1,8.954535420E-1
8.761885208E0,4.695109516E-2,1.129724164E0,3.747170609E-1,1.191173358E0
8.771808208E0,-1.533067585E-1,1.105671642E0,4.522056053E-1,1.204368155E0
8.781731208E0,-4.638452920E-1,7.678505123E-1,4.374547613E-1,9.980548744E-1
8.791654208E0,-7.439542575E-1,2.924251020E-1,3.968576161E-1,8.924552342E-1
8.801577208E0,-8.727149163E-1,-1.395017016E-1,3.497799287E-1,9.504935815E-1
8.811500208E0,-9.311167601E-1,-3.785265219E-1,2.430535519E-1,1.034086930E0
8.821423208E0,-9.719072288E-1,-3.198567295E-1,9.110488236E-2,1.027235167E0
8.831346208E0,-1.023672556E0,-2.878525794E-2,-4.532885827E-2,1.025079898E0
8.841269208E0,-9.561042514E-1,2.475816357E-1,-1.879838902E-1,1.005370553E0
8.851192208E0,-7.104701771E-1,4.000828671E-1,-2.528787746E-1,8.536872072E-1
8.861114792E0,-3.310816294E-1,4.032432872E-1,-1.773834729E-1,5.510763019E-1
8.871037792E0,5.659139961E-2,2.877169240E-1,-5.790965438E-2,2.988931965E-1
8.880960792E0,3.413388151E-1,1.534402943E-1,3.570543766E-2,3.759401400E-1
8.890883792E0,5.500369053E-1,2.151775360E-2,6.355097495E-2,5.541140111E-1
8.900806792E0,7.518517993E-1,-1.082506728E-1,3.116032384E-2,7.602435808E-1
8.910729792E0,9.232285738E-1,-2.196641046E-1,-3.480613589E-2,9.496392923E-1
8.920652792E0,1.009162032E0,-2.050068891E-1,-6.579294361E-2,1.031874287E0
8.930575792E0,1.058465462E0,-4.991475642E-2,-1.080765720E-1,1.065139035E0
8.940498792E0,1.124051926E0,1.585180163E-1,-1.461568563E-1,1.144544679E0
8.950421792E0,1.184147270E0,2.718855876E-1,-2.213812856E-1,1.234964049E0
8.960344792E0,1.211374391E0,1.709708315E-1,-3.253314775E-1,1.265898697E0
8.970267792E0,1.176612255E0,-1.035068268E-1,-4.973175319E-1,1.281582924E0
8.980190792E0,1.115752827E0,-4.397451156E-1,-7.489774543E-1,1.413947441E0
8.990113792E0,1.123785001E0,-6.852088898E-1,-9.831746672E-1,1.642874425E0
9.000036792E0,1.174620401E0,-6.861263180E-1,-1.132321570E0,1.769930663E0
9.009959792E0,1.274473595E0,-5.465181971E-1,-1.048747390E0,1.738630545E0
9.019882792E0,1.417029005E0,-4.335926753E-1,-6.708113638E-1,1.626641232E0
9.029805792E0,1.528468603E0,-3.621285903E-1,-1.572801608E-1,1.578635625E0
9.039728792E0,1.626390024E0,-2.777614546E-1,2.573855891E-1,1.669893193E0
9.049651792E0,1.748044123E0,-2.028878582E-1,4.486334682E-1,1.816065452E0
9.059574792E0,1.851463387E0,-1.188545984E-1,4.830863591E-1,1.917137325E0
9.069497792E0,1.907647236E0,-7.761184752E-2,5.287086745E-1,1.981079110E0
9.079420792E0,1.961211678E0,-1.179243064E-1,6.023146677E-1,2.055003734E0
9.089343792E0,2.038711259E0,-3.331661618E-1,6.364566330E-1,2.161578205E0
9.099266792E0,2.146345636E0,-6.953456229E-1,5.482711923E-1,2.321832557E0
9.109189792E0,2.274751515E0,-1.189751095E0,2.615663483E-1,2.580391264E0
9.119112792E0,2.460892801E0,-1.852334769E0,-9.792799830E-2,3.081676064E0
9.129035792E0,2.558947392E0,-2.754607506E0,-4.623394147E-1,3.788117211E0
9.138958792E0,2.528580169E0,-3.604986205E0,-8.872752873E-1,4.491870507E0
9.148881792E0,2.413264306E0,-4.142351755E0,-1.474318270E0,5.015629276E0
9.158804792E0,2.290885591E0,-4.253222566E0,-2.305333183E0,5.352814220E0
9.168727792E0,2.221093809E0,-4.025203375E0,-3.345720078E0,5.685891554E0
9.178650792E0,1.937129482E0,-3.811888177E0,-4.466314985E0,6.183116661E0
9.188573792E0,1.332855266E0,-3.595359349E0,-5.326401815E0,6.563053277E0
9.198496792E0,8.218077412E-1,-3.200649489E0,-5.359414026E0,6.296256333E0
9.208419792E0,6.684779593E-1,-2.718928381E0,-4.770043924E0,5.531071629E0
9.218342792E0,7.174779189E-1,-2.227507328E0,-4.357133435E0,4.945824019E0
9.228265792E0,8.227959207E-1,-1.682662019E0,-4.558550134E0,4.928359151E0
9.238188792E0,9.112790577E-1,-1.172156823E0,-4.201574110E0,4.456187399E0
9.248111792E0,7.682128935E-1,-7.065675992E-1,-2.482520775E0,2.693009138E0
9.258034792E0,3.705248997E-1,-3.429947466E-1,-4.844801161E-1,6.997535854E-1
9.267957792E0,1.386184797E-2,-6.451642334E-2,2.082360870E0,2.083406181E0
9.277880792E0,-1.611551106E-2,2.413151747E-1,5.330114797E0,5.335598980E0
9.287803792E0,1.910981172E-1,6.767140549E-1,7.903280863E0,7.934501169E0
9.297726792E0,3.609083495E-1,1.267913166E0,8.439632506E0,8.541970234E0
9.307649792E0,3.051824109E-1,1.571170235E0,7.109155887E0,7.287098849E0
9.317572792E0,-1.153151326E-1,1.215596958E0,5.436772689E0,5.572205202E0
9.327495792E0,-3.887552755E-1,5.088217825E-1,4.136210425E0,4.185482881E0
9.337418792E0,-2.086572327E-1,-9.952077985E-2,3.139248754E0,3.147749191E0
9.347341792E0,4.008411779E-1,-4.460940224E-1,2.116420463E0,2.199752055E0
9.357264792E0,1.075282566E0,-5.450429446E-1,1.202472005E0,1.702716457E0
9.367187792E0,1.677414728E0,-4.091589153E-1,9.429076704E-1,1.967283930E0
9.377110792E0,2.021107632E0,-1.035962892E-1,1.459829601E0,2.495337796E0
9.387033792E0,2.041999441E0,2.046332520E-1,2.096032684E0,2.933426239E0
9.396956792E0,1.665837826E0,4.992434585E-1,2.474232931E0,3.024250038E0
9.406879792E0,1.030643972E0,7.363866448E-1,2.685631704E0,2.969361874E0
9.416802792E0,4.458703664E-1,9.064201677E-1,2.863857176E0,3.036787090E0
9.426725792E0,-5.473376661E-2,1.030176487E0,2.993784354E0,3.166544511E0
9.436648792E0,-5.032008541E-1,1.177107661E0,3.131215557E0,3.382795354E0
9.446571792E0,-9.893904036E-1,1.330224019E0,3.176324487E0,3.582935467E0
9.456494792E0,-1.402031921E0,1.463124214E0,2.902550833E0,3.539947360E0
9.466417792E0,-1.655761611E0,1.508902650E0,2.250740801E0,3.175557884E0
9.476340792E0,-1.745151213E0,1.333494367E0,1.411843110E0,2.610950200E0
9.486263792E0,-1.785730305E0,1.103122256E0,7.360378584E-1,2.224289361E0
9.496186792E0,-2.014462564E0,8.764391541E-1,2.839978024E-1,2.215143283E0
9.506109792E0,-2.294907306E0,8.259320748E-1,8.467119098E-2,2.440477933E0
9.516032792E0,-2.595718777E0,9.113973176E-1,1.024806404E-1,2.752980806E0
9.525956792E0,-2.996806488E0,1.066666621E0,3.694513509E-1,3.202361801E0
9.535879792E0,-3.255824985E0,1.245729999E0,7.133896919E-1,3.558253000E0
9.545802792E0,-3.290172114E0,1.401707400E0,8.380394657E-1,3.673190211E0
9.555724792E0,-3.141006135E0,1.487436937E0,7.309184749E-1,3.551426474E0
9.565647792E0,-2.802675127E0,1.480499800E0,4.452806747E-1,3.200803400E0
9.575571792E0,-2.369730031E0,1.391996929E0,8.406103402E-2,2.749607632E0
9.585494792E0,-1.798999976E0,1.263010860E0,-2.455909511E-1,2.211766774E0
9.595417792E0,-1.072065355E0,1.104173001E0,-3.648871605E-1,1.581665193E0
9.605340792E0,-4.451634380E-1,9.230274296E-1,-2.449538970E-1,1.053637762E0
9.615263792E0,-1.216066270E-1,7.933069503E-1,-9.816992685E-2,8.085551457E-1
9.625186792E0,-7.202691603E-2,7.165090352E-1,-9.700516149E-2,7.266244391E-1
9.635109792E0,-1.203976421E-1,7.518630552E-1,-1.823443969E-1,7.829707051E-1
9.645032792E0,-1.053732763E-1,7.836514431E-1,-3.088252263E-1,8.488734488E-1
9.654955792E0,1.173828542E-2,7.410392743E-1,-6.198609924E-1,9.661804404E-1
9.664878792E0,1.718090299E-1,6.318922234E-1,-6.351128697E-1,9.122359793E-1
9.674801792E0,3.968964270E-1,4.893990862E-1,-4.030250399E-1,7.479755492E-1
9.684724792E0,8.622985402E-1,2.763937908E-1,-6.366036905E-1,1.106895008E0
9.694647792E0,1.100375234E0,-3.554463923E-2,-5.305870195E-1,1.222134061E0
9.704570792E0,1.221386286E0,-1.811537576E-1,-1.378164610E-1,1.242414794E0
9.714493792E0,1.179037242E0,-3.492179382E-1,7.348780632E-2,1.231861374E0
9.724416792E0,6.680306473E-1,-7.104302698E-1,-2.249365389E-1,1.000785971E0
9.734339792E0,5.946618319E-3,-1.086184627E0,-7.568542385E-1,1.323880940E0
9.744262792E0,-4.595449207E-1,-1.338070983E0,-1.548621909E0,2.097580823E0
9.754185792E0,-6.422761475E-1,-1.544273043E0,-2.615825597E0,3.104809404E0
9.764108792E0,-4.504921884E-1,-1.815757511E0,-3.838764904E0,4.270367026E0
9.774031792E0,5.419378538E-2,-2.064923158E0,-4.605423753E0,5.047452086E0
9.783954792E0,6.746054028E-1,-1.863642699E0,-4.273018899E0,4.710302227E0
9.793877792E0,9.358961280E-1,-1.000010117E0,-2.837499390E0,3.150765714E0
9.803800792E0,5.976745732E-1,9.057746351E-2,-1.454628356E0,1.575234213E0
9.813723792E0,-5.434698243E-2,9.278367645E-1,-4.581587286E-1,1.036216231E0
9.823646792E0,-1.035336070E0,1.537467468E0,2.339798427E-1,1.868280911E0
9.833569792E0,-2.012855603E0,2.148283403E0,6.979702918E-1,3.025536611E0
9.843492792E0,-2.740996358E0,2.725190749E0,1.243432482E0,4.060277083E0
9.853415792E0,-3.366470677E0,2.877454584E0,2.051778617E0,4.880846770E0
9.863338917E0,-3.978666262E0,2.092357124E0,2.985567262E0,5.396420614E0
9.873261917E0,-4.440019179E0,3.183107257E-1,3.972657956E0,5.966330804E0
9.883184917E0,-4.705620471E0,-1.881738662E0,4.941857339E0,7.078542108E0
9.893107917E0,-4.727726455E0,-3.755368990E0,4.955091927E0,7.810706094E0
9.903030917E0,-4.550653469E0,-5.284276720E0,3.293661733E0,7.712343033E0
9.912953917E0,-4.209076672E0,-6.819459681E0,-2.314012937E-1,8.017163048E0
9.922876917E0,-2.252026019E0,-7.229893289E0,-4.334892966E0,8.725495699E0
9.932799917E0,8.882462905E-1,-4.525076578E0,-6.273505740E0,7.786024260E0
9.942722917E0,2.714372523E0,-9.415905851E-1,-4.588927588E0,5.414117420E0
9.952645917E0,3.034330702E0,1.492217036E0,-1.199649847E0,3.587901092E0
9.962568917E0,2.802005914E0,3.190229166E0,2.048422315E0,4.714322141E0
9.972491917E0,1.975634421E0,4.451442007E0,4.529544436E0,6.650957833E0
9.982414917E0,9.846114743E-1,4.925599741E0,5.728788486E0,7.619055721E0
9.992337917E0,3.402797382E-1,4.614455363E0,5.653049501E0,7.305200699E0
1.000226092E1,1.038143903E-2,3.793902726E0,5.023034234E0,6.294813626E0
1.001218392E1,1.087245896E-2,2.589823614E0,4.506622181E0,5.197782993E0
1.002210692E1,9.324496329E-2,1.057363701E0,4.221784426E0,4.353180028E0
1.003202992E1,2.366714622E-1,-8.377574837E-1,3.289963953E0,3.403191707E0
1.004195292E1,1.023917335E0,-2.758110573E0,1.591288165E0,3.344813697E0
1.005187592E1,1.879291310E0,-3.703577278E0,3.550195456E-1,4.168244158E0
1.006179892E1,2.332079517E0,-3.458749681E0,-1.355759175E-1,4.173718373E0
1.007172192E1,2.643331484E0,-2.541428549E0,-4.066294098E-1,3.689364157E0
1.008164492E1,2.639483139E0,-1.249015549E0,-4.680579185E-1,2.957361882E0
1.009156792E1,2.608988448E0,-2.239015818E-1,-7.369127115E-2,2.619615056E0
1.010149092E1,2.458054855E0,2.080252218E-1,3.491641438E-1,2.491430064E0
1.011141392E1,2.132679377E0,2.936588645E-1,5.108536899E-1,2.212584088E0
1.012133692E1,1.732909628E0,1.233493531E-1,6.245680010E-1,1.846151681E0
1.013125992E1,1.338841207E0,-2.285045099E-1,6.650190389E-1,1.512269953E0
1.014118292E1,9.697633472E-1,-4.342756301E-1,7.327800822E-1,1.290737356E0
1.015110592E1,6.985399568E-1,-5.677944607E-1,6.583982366E-1,1.115274342E0
1.016102892E1,4.848294872E-1,-5.743117672E-1,5.331532162E-1,9.214911772E-1
1.017095192E1,3.410293512E-1,-4.165421945E-1,3.962687284E-1,6.684589167E-1
1.018087492E1,1.475584339E-1,-1.471276402E-1,2.612728912E-1,3.341908999E-1
1.019079792E1,-7.851582706E-2,1.784769022E-1,2.582340749E-1,3.235793213E-1
1.020072092E1,-2.017843424E-1,5.305745941E-1,4.605980774E-1,7.310108820E-1
1.021064392E1,-2.140734355E-1,8.500500852E-1,8.433386511E-1,1.216401522E0
1.022056692E1,-8.744861841E-2,1.054212052E0,1.340986989E0,1.707997780E0
1.023048992E1,6.788734317E-2,1.056119998E0,1.783085609E0,2.073497632E0
1.024041292E1,2.245453602E-1,9.733778036E-1,2.066967929E0,2.295700631E0
1.025033592E1,3.751475622E-1,8.394888443E-1,2.156857760E0,2.344677507E0
1.026025892E1,5.390346381E-1,6.813368636E-1,1.961117538E0,2.144938289E0
1.027018192E1,7.550549041E-1,4.759680319E-1,1.562606987E0,1.799553854E0
1.028010492E1,9.601737674E-1,2.910398966E-1,1.065006450E0,1.463173477E0
1.029002792E1,1.018625020E0,1.825822324E-1,5.992618364E-1,1.195846124E0
1.029995092E1,8.659726381E-1,2.301598567E-1,1.875302193E-1,9.154505736E-1
1.030987392E1,5.312683663E-1,3.418416756E-1,-1.312103498E-1,6.452270640E-1
1.031979692E1,1.581832632E-1,4.719878322E-1,-3.875663173E-1,6.308740832E-1
1.032971992E1,-1.701979758E-1,5.364644945E-1,-6.074521045E-1,8.281060101E-1
1.033964292E1,-4.211052154E-1,4.861977357E-1,-8.049236868E-1,1.030349447E0
1.034956592E1,-5.527122988E-1,2.977530849E-1,-9.653565931E-1,1.151547279E0
1.035948892E1,-5.718126673E-1,4.821847916E-2,-9.899295169E-1,1.144226899E0
1.036941192E1,-4.980088189E-1,-1.616743433E-1,-8.614960098E-1,1.008130325E0
1.037933492E1,-2.981927955E-1,-2.957819885E-1,-6.755146448E-1,7.954407353E-1
1.038925792E1,6.778677106E-3,-4.518763340E-1,-5.518298078E-1,7.132701511E-1
1.039918092E1,4.510735112E-1,-5.332824397E-1,-5.712415405E-1,9.023161146E-1
1.040910392E1,9.891866282E-1,-5.449704391E-1,-6.716844262E-1,1.314017859E0
1.041902692E1,1.576896705E0,-6.105908167E-1,-7.391004838E-1,1.845452218E0
1.042894992E1,2.174562544E0,-8.361132467E-1,-7.251800175E-1,2.440019196E0
1.043887292E1,2.683254811E0,-1.247889376E0,-6.408308619E-1,3.027829002E0
1.044879592E1,3.093560073E0,-1.685955756E0,-4.989434963E-1,3.558300907E0
1.045871892E1,3.418391906E0,-1.952793442E0,-3.518422417E-1,3.952543284E0
1.046864192E1,3.718307876E0,-2.039876025E0,-3.269667976E-1,4.253682515E0
1.047856492E1,3.988561505E0,-2.100259051E0,-5.386979847E-1,4.539813486E0
1.048848792E1,3.967214198E0,-2.271915761E0,-1.003094961E0,4.680447545E0
1.049841092E1,3.700405163E0,-2.941112051E0,-1.629209113E0,4.999746074E0
1.050833392E1,3.530480691E0,-4.283207088E0,-2.257515092E0,5.992205876E0
1.051825692E1,3.598515676E0,-5.817193708E0,-2.741940683E0,7.369348440E0
1.052817992E1,3.945693229E0,-6.954579479E0,-2.963307497E0,8.527359621E0
1.053810292E1,4.682887082E0,-7.092443376E0,-3.278802788E0,9.109485835E0
1.054802592E1,5.777209278E0,-6.181578155E0,-4.167195990E0,9.431520447E0
1.055794892E1,6.382925856E0,-5.063896331E0,-5.997682638E0,1.011716292E1
1.056787192E1,5.781098846E0,-4.168475361E0,-7.879593208E0,1.062474846E1
1.057779492E1,4.500595163E0,-3.324049128E0,-8.195901262E0,9.923580852E0
1.058771792E1,3.279265595E0,-2.367385590E0,-6.474801986E0,7.634209726E0
1.059764092E1,2.593134015E0,-1.550989155E0,-3.530331295E0,4.646843060E0
1.060756392E1,2.517661371E0,-1.221457037E0,-8.338467928E-1,2.919910366E0
1.061748692E1,2.648568543E0,-9.807090425E-1,1.680894406E0,3.286656592E0
1.062740992E1,2.791057295E0,-9.090508300E-1,4.180970861E0,5.108511679E0
1.063733292E1,3.367562645E0,-9.945435548E-1,6.520445352E0,7.405795206E0
1.064725592E1,4.024942296E0,-9.272561359E-1,8.771912230E0,9.695690208E0
1.065717892E1,4.399980077E0,-7.277450448E-1,1.014154414E1,1.107882463E1
1.066710192E1,4.646577042E0,-5.640610135E-1,1.017044576E1,1.119583896E1
1.067702492E1,4.881747962E0,-7.048350692E-1,8.891933348E0,1.016832013E1
1.068694792E1,4.765148343E0,-1.270980030E0,6.938717737E0,8.512804050E0
1.069687092E1,4.048721168E0,-1.887208148E0,4.994254239E0,6.700468125E0
1.070679392E1,3.222230392E0,-2.410634521E0,4.129422977E0,5.765939786E0
1.071671692E1,2.590540190E0,-2.716826892E0,4.213198375E0,5.642967958E0
1.072663992E1,1.688605714E0,-2.565208590E0,3.905524904E0,4.968380937E0
1.073656292E1,7.164241775E-1,-2.077809836E0,3.156776075E0,3.846529931E0
1.074648592E1,1.477759503E-1,-1.509306693E0,2.847456028E0,3.226120001E0
1.075640892E1,-2.791643478E-1,-9.697899520E-1,3.701657052E0,3.836755167E0
1.076633192E1,-8.235816403E-1,-6.548279268E-1,5.136485420E0,5.243144935E0
1.077625492E1,-1.314302928E0,-4.855054253E-1,5.920725678E0,6.084250181E0
1.078617792E1,-1.542854654E0,-2.087403363E-1,6.038133091E0,6.235625408E0
1.079610092E1,-1.700666766E0,3.254636246E-1,5.714916551E0,5.971470941E0
1.080602392E1,-2.037375755E0,9.205096185E-1,5.221826702E0,5.680291545E0
1.081594692E1,-2.517371349E0,1.302474888E0,4.822374165E0,5.593647462E0
1.082586992E1,-2.920735966E0,1.332703239E0,4.484292834E0,5.515041136E0
1.083579292E1,-3.203166130E0,1.095979298E0,4.115270376E0,5.328873628E0
1.084571592E1,-3.289012904E0,9.209826583E-1,3.703048689E0,5.037696352E0
1.085563892E1,-3.240094805E0,9.283062959E-1,3.352875024E0,4.754128506E0
1.086556217E1,-3.371416252E0,1.225890981E0,3.129614589E0,4.760645305E0
1.087548517E1,-3.749225028E0,1.747362630E0,3.143123996E0,5.195112408E0
1.088540817E1,-4.166078587E0,2.353924130E0,3.279766702E0,5.801210152E0
1.089533117E1,-4.446332710E0,2.931560624E0,3.324904575E0,6.278448271E0
1.090525417E1,-4.438187831E0,3.439653259E0,3.228900311E0,6.477231120E0
1.091517717E1,-4.297736834E0,3.758232957E0,2.807896399E0,6.362321827E0
1.092510017E1,-4.182494937E0,3.833271444E0,2.008529102E0,6.018423633E0
1.093502317E1,-4.057686412E0,3.578310038E0,1.106477973E0,5.522084321E0
1.094494617E1,-3.828224128E0,3.078258494E0,3.568508935E-1,4.925273382E0
1.095486917E1,-3.465509062E0,2.549484258E0,-3.490787745E-2,4.302422759E0
1.096479317E1,-2.976022852E0,2.160819833E0,-5.514509082E-2,3.678164671E0
1.097471517E1,-2.636478255E0,1.873290605E0,-1.849393912E-1,3.239511978E0
1.098463817E1,-2.392090661E0,1.603187249E0,-3.132869442E-1,2.896628349E0
1.099456117E1,-2.103644297E0,1.407648171E0,-4.031536786E-1,2.563069564E0
1.100448517E1,-1.619517060E0,1.318965790E0,-6.896578901E-1,2.199575929E0
1.101440817E1,-9.429708204E-1,1.133840019E0,-1.271058383E0,1.946888946E0
1.102433117E1,-9.477532580E-3,6.214385712E-1,-2.089823087E0,2.180283527E0
1.103425417E1,1.040592790E0,-4.105523068E-1,-2.906241596E0,3.114101277E0
1.104417717E1,2.168481148E0,-1.903412536E0,-3.773546230E0,4.750256932E0
1.105410017E1,3.253866168E0,-3.647686082E0,-4.209595320E0,6.450887656E0
1.106402317E1,3.795363068E0,-5.292660457E0,-3.630602857E0,7.456427606E0
1.107394617E1,3.833264135E0,-6.216105963E0,-2.304298957E0,7.657916228E0
1.108386917E1,3.337888610E0,-5.541718515E0,-1.620116254E0,6.669101975E0
1.109379217E1,1.672892199E0,-3.299520058E0,-1.685558145E0,4.065280702E0
1.110371517E1,7.104994863E-1,-6.674356931E-1,-1.122531065E0,1.486726578E0
1.111363817E1,-1.230891520E-1,1.356157590E0,-2.650379133E-1,1.387284918E0
1.112356117E1,-1.852888208E0,2.311265768E0,3.952179837E-1,2.988534995E0
1.113348417E1,-4.811149558E0,1.538408285E0,1.183457883E0,5.187912170E0
1.114340717E1,-7.751614029E0,-7.473150909E-1,2.491044846E0,8.176264693E0
1.115333017E1,-8.950589107E0,-3.291363192E0,4.399735079E0,1.050256092E1
1.116325317E1,-8.018757525E0,-4.311253257E0,5.187813449E0,1.047858699E1
1.117317617E1,-6.208093523E0,-3.869061667E0,4.250411224E0,8.460263527E0
1.118309917E1,-4.118057744E0,-2.911905209E0,2.154690928E0,5.484549619E0
1.119302217E1,-1.483487143E0,-1.846487553E0,-8.687090620E-1,2.522876497E0
1.120294517E1,9.485033827E-1,-6.532234508E-1,-3.814244020E0,3.984321396E0
1.121286817E1,3.025007316E0,1.063512633E0,-3.685015876E0,4.884779462E0
1.122279117E1,4.806444595E0,2.998924057E0,-1.419383533E0,5.840385669E0
1.123271417E1,5.095168410E0,4.702041391E0,1.298148533E0,7.053731210E0
1.124263717E1,3.474875132E0,5.626770945E0,3.440405796E0,7.454642881E0
1.125256017E1,8.518105356E-1,5.597803254E0,5.014821235E0,7.563690533E0
1.126248317E1,-1.284047095E0,4.748546051E0,5.191119465E0,7.151586386E0
1.127240617E1,-2.881925365E0,3.257955710E0,4.203379730E0,6.048815617E0
1.128232917E1,-4.323869795E0,9.548620105E-1,2.888970090E0,5.287131514E0
1.129225217E1,-4.718933704E0,-1.675615540E0,1.712995620E0,5.292483041E0
1.130217517E1,-3.793736665E0,-3.553105030E0,5.137176561E-1,5.223112010E0
1.131209817E1,-1.663690143E0,-3.313808899E0,-4.912257564E-1,3.740387287E0
1.132202117E1,-4.921075165E-2,-1.383319076E0,-4.708610737E-1,1.462088751E0
1.133194417E1,4.083753884E-1,2.593813169E-1,5.851115745E-1,7.592131980E-1
1.134186717E1,7.109190971E-2,1.189751680E0,1.902274668E0,2.244818931E0
1.135179017E1,-3.767024830E-1,1.593801883E0,2.690989215E0,3.150163831E0
1.136171317E1,-4.264944479E-1,1.666174625E0,2.616966974E0,3.131541399E0
1.137163617E1,-2.641305716E-1,1.408636351E0,2.096084724E0,2.539210999E0
1.138155917E1,2.303126152E-1,7.824556875E-1,1.346833620E0,1.574560765E0
1.139148217E1,9.860368793E-1,5.988250494E-2,3.981510202E-1,1.065072240E0
1.140140517E1,1.558092060E0,-2.782608068E-1,-6.675426972E-1,1.717758189E0
1.141132817E1,1.815529031E0,-1.384223056E-1,-1.487472167E0,2.351144369E0
1.142125117E1,1.822167521E0,6.311659992E-2,-1.617968425E0,2.437642305E0
1.143117417E1,1.583471022E0,5.427210152E-2,-1.062775299E0,1.907830515E0
1.144109717E1,1.171025387E0,-1.124811333E-1,-1.480134934E-1,1.185689865E0
1.145102017E1,8.204668285E-1,-3.260454226E-1,6.172044562E-1,1.077224570E0
1.146094317E1,6.110499693E-1,-3.353348941E-1,9.759589107E-1,1.199302861E0
1.147086617E1,4.827862508E-1,-8.830055773E-2,9.450759642E-1,1.064916959E0
1.148078917E1,3.544956350E-1,2.336991763E-1,5.978701991E-1,7.333015991E-1
1.149071217E1,1.239462076E-1,4.973548079E-1,1.568107755E-1,5.360168716E-1
1.150063517E1,-2.122453035E-1,5.798414791E-1,-9.913354799E-2,6.253732246E-1
1.151055817E1,-6.017374744E-1,5.603509551E-1,-4.410627857E-2,8.234236728E-1
1.152048117E1,-8.583205332E-1,4.391206330E-1,1.841687281E-1,9.815595695E-1
1.153040417E1,-9.121054155E-1,3.426035678E-1,5.050292784E-1,1.097437044E0
1.154032717E1,-8.291635385E-1,2.866854751E-1,7.402259266E-1,1.147882902E0
1.155025017E1,-7.484952783E-1,2.795191276E-1,7.638847844E-1,1.105394087E0
1.156017317E1,-6.937238976E-1,2.225426888E-1,6.208708066E-1,9.572140058E-1
1.157009617E1,-7.445432183E-1,9.773445547E-2,3.445167768E-1,8.261891050E-1
1.158001917E1,-8.774513803E-1,-8.577280641E-3,6.888049275E-2,8.801926021E-1
1.158994217E1,-9.767249691E-1,-1.517539573E-1,-1.451789095E-1,9.990484695E-1
1.159986517E1,-1.030045217E0,-3.711233622E-1,-2.920391858E-1,1.133142791E0
1.160978817E1,-9.721254762E-1,-6.453951985E-1,-3.196691801E-1,1.209855896E0
1.161971117E1,-7.573478897E-1,-8.257952499E-1,-2.342916454E-1,1.144729748E0
1.162963417E1,-3.576189253E-1,-7.040854561E-1,-1.982434148E-1,8.142039528E-1
1.163955717E1,2.247475277E-1,-4.777987951E-1,-3.464273545E-1,6.315180534E-1
1.164948017E1,8.872496326E-1,-3.567912519E-1,-7.100580946E-1,1.191089588E0
1.165940317E1,1.428382252E0,-4.435042906E-1,-1.228419609E0,1.935455153E0
1.166932617E1,1.727415877E0,-6.816081744E-1,-1.756634121E0,2.556231357E0
1.167924917E1,1.810668241E0,-8.431088555E-1,-2.064321772E0,2.872416474E0
1.168917217E1,1.819462161E0,-8.532034886E-1,-2.056017556E0,2.874996859E0
1.169909517E1,1.959592877E0,-8.010510027E-1,-1.686188475E0,2.706458669E0
1.170901817E1,2.196383768E0,-8.761935711E-1,-1.199822924E0,2.651677183E0
1.171894117E1,2.363062305E0,-1.129982611E0,-8.133687472E-1,2.742716332E0
1.172886417E1,2.459740607E0,-1.583943477E0,-5.674139531E-1,2.980127411E0
1.173878717E1,2.509250444E0,-2.464899021E0,-4.431397167E-1,3.545199258E0
1.174871017E1,2.544778419E0,-3.843097690E0,-3.867228565E-1,4.625456910E0
1.175863317E1,2.520682043E0,-5.133140228E0,-3.843575116E-1,5.731552779E0
1.176855617E1,2.449328909E0,-6.085937587E0,-6.504252657E-1,6.592488259E0
1.177847917E1,2.271964439E0,-6.655635901E0,-1.325713769E0,7.156593370E0
1.178840217E1,1.978696754E0,-6.655058196E0,-2.264383963E0,7.302908679E0
1.179832517E1,1.558717127E0,-5.962560167E0,-3.725220746E0,7.201318799E0
1.180824817E1,8.172439894E-1,-5.049870615E0,-6.429769655E0,8.216508917E0
1.181817117E1,-1.177854350E-1,-4.120770852E0,-1.075435339E1,1.151741042E1
1.182809417E1,-7.872509891E-1,-3.325685179E0,-1.407057602E1,1.447967733E1
1.183801717E1,-1.225526846E0,-2.556548279E0,-1.290152817E1,1.320936350E1
1.184794017E1,-1.698430936E0,-1.781574689E0,-7.894883092E0,8.269694980E0
1.185786317E1,-1.970172390E0,-1.016934298E0,-3.084863509E0,3.798962685E0
1.186778567E1,-2.169437752E0,-2.259229642E-1,-1.518264262E-1,2.186447486E0
1.187770867E1,-2.123860314E0,3.527332842E-1,2.526229296E0,3.319192351E0
1.188763167E1,-1.790600158E0,9.607852399E-1,5.345535074E0,5.718750076E0
1.189755467E1,-1.382864601E0,1.739016314E0,7.040087407E0,7.382365674E0
1.190747767E1,-8.744971476E-1,2.214656902E0,7.364273415E0,7.739636515E0
1.191740067E1,-8.773703232E-1,1.766445018E0,6.566657066E0,6.856463499E0
1.192732367E1,-1.744686067E0,4.487387180E-1,5.137363672E0,5.444061114E0
1.193724667E1,-2.602111537E0,-1.077019116E0,3.437622521E0,4.443895051E0
1.194716967E1,-2.830811344E0,-2.311336520E0,1.826831553E0,4.085716938E0
1.195709267E1,-2.802699686E0,-2.963544309E0,8.448630202E-1,4.165514845E0
1.196701567E1,-2.141150969E0,-2.613683762E0,5.709524687E-1,3.426639316E0
1.197693867E1,-1.173013733E0,-1.503965846E0,5.327912736E-1,1.980338614E0
1.198686167E1,-5.254427853E-1,-3.755169600E-1,5.196058754E-1,8.289109564E-1
1.199678467E1,-5.605108765E-1,7.022804207E-1,6.076590228E-1,1.084721033E0
1.200670767E1,-1.061520048E0,1.547611803E0,1.133598383E0,2.192480877E0
1.201663067E1,-1.700855923E0,2.054843727E0,1.799771662E0,3.217836486E0
1.202655367E1,-2.325695235E0,2.320663413E0,2.275827549E0,3.996714655E0
1.203647667E1,-2.851100598E0,2.469186199E0,2.494325134E0,4.521870518E0
1.204639967E1,-3.344241025E0,2.530588980E0,2.483289099E0,4.873864316E0
1.205632267E1,-3.776644669E0,2.601308715E0,2.365317868E0,5.159901221E0
1.206624567E1,-4.062039079E0,2.649972752E0,2.307110006E0,5.370779612E0
1.207616867E1,-4.084021102E0,2.632495424E0,2.311811460E0,5.380867285E0
1.208609167E1,-3.912923970E0,2.604260974E0,2.251301695E0,5.211670417E0
1.209601467E1,-3.770090525E0,2.675822123E0,2.067804812E0,5.064525974E0
1.210593767E1,-3.727676285E0,2.882770872E0,1.888107011E0,5.076503370E0
1.211586067E1,-3.771490349E0,3.151121233E0,1.711174797E0,5.204019952E0
1.212578367E1,-3.869998975E0,3.477681795E0,1.558364832E0,5.431359286E0
1.213570667E1,-3.912664061E0,3.840113856E0,1.531198376E0,5.692098291E0
1.214562967E1,-3.930692489E0,4.273163325E0,1.589399222E0,6.019672594E0
1.215555267E1,-3.822091568E0,4.631972451E0,1.577749814E0,6.209093913E0
1.216547567E1,-3.528966554E0,4.704407759E0,1.495555211E0,6.068092179E0
1.217539867E1,-3.198347440E0,4.433146069E0,1.431814713E0,5.650867525E0
1.218532167E1,-2.837817771E0,3.953296071E0,1.487329495E0,5.088605757E0
1.219524467E1,-2.383854712E0,3.474492724E0,1.736012599E0,4.557258246E0
1.220516767E1,-1.799003046E0,2.873494849E0,1.344184978E0,3.646946375E0
1.221509067E1,-1.009426180E0,2.142674169E0,3.196779509E-1,2.390018368E0
1.222501367E1,-5.041758773E-1,1.542531157E0,-1.269931917E-1,1.627796964E0
1.223493667E1,5.505773342E-1,1.035720817E0,-8.537588279E-1,1.450778118E0
1.224485967E1,1.486279919E0,6.141564488E-1,-1.992957820E0,2.560878173E0
1.225478267E1,2.638178918E0,2.732339555E-1,-2.921030374E0,3.945511784E0
1.226470567E1,4.577779287E0,-1.413225245E-1,-3.082273192E0,5.520547372E0
1.227462867E1,6.410270945E0,-1.128020285E0,-3.074407518E0,7.198332094E0
1.228455167E1,7.588099567E0,-2.726520406E0,-3.813941134E0,8.919602880E0
1.229447467E1,8.069768634E0,-4.775744959E0,-5.215398273E0,1.072983154E1
1.230439767E1,8.068702687E0,-6.859044161E0,-7.190697649E0,1.280064774E1
1.231432067E1,6.976593077E0,-8.052677223E0,-8.424143232E0,1.358251268E1
1.232424367E1,3.104383854E0,-6.825289355E0,-6.936761259E0,1.021471638E1
1.233416667E1,-8.538862972E-1,-4.379173345E0,-3.551741459E0,5.702731660E0
1.234409067E1,-2.876771629E0,-3.240544456E0,-8.907461945E-1,4.423841335E0
1.235401367E1,-4.501856115E0,-2.755093410E0,2.960573924E-1,5.286293424E0
1.236393667E1,-5.807981420E0,-2.636313656E0,9.434820863E-1,6.447709385E0
1.237385967E1,-6.321829469E0,-2.942907146E0,2.099098964E0,7.282338002E0
1.238378267E1,-6.552305076E0,-3.492898589E0,2.703998101E0,7.902192613E0
1.239370567E1,-7.192306218E0,-3.681663083E0,4.283366132E-1,8.091191756E0
1.240362867E1,-6.767725856E0,-1.983087866E0,-3.851894242E0,8.035660520E0
1.241355167E1,-5.075418854E0,1.216084616E0,-1.398208426E0,5.403121796E0
1.242347467E1,-4.396900641E0,3.165591338E0,3.243577992E0,6.314626034E0
1.243339767E1,-3.516947895E0,4.558898628E0,5.555926080E0,8.001299507E0
1.244332067E1,-2.147520049E0,5.915925699E0,5.280919833E0,8.215724771E0
1.245324367E1,-1.332174358E0,7.200268956E0,3.741744978E0,8.223090480E0
1.246316667E1,-1.130994472E0,7.736782567E0,1.068310858E0,7.891656421E0
1.247308967E1,-1.803081771E0,6.005010368E0,-2.806336069E-1,6.276146000E0
1.248301267E1,-2.533961070E0,2.549193066E0,1.988575478E0,4.107770250E0
1.249293567E1,-2.665915770E0,-7.032960820E-1,4.975842526E0,5.688650201E0
1.250285867E1,-2.514930137E0,-3.506045469E0,6.272785948E0,7.613479623E0
1.251278167E1,-1.990063595E0,-5.177856810E0,5.982589805E0,8.158549811E0
1.252270467E1,-4.588070752E-1,-5.418897166E0,4.727739319E0,7.206002324E0
1.253262767E1,1.310271127E0,-4.091143010E0,2.700620749E0,5.074210676E0
1.254255067E1,2.621944708E0,-1.894351106E0,1.052089512E-1,3.236391369E0
1.255247367E1,3.432906741E0,-4.411022544E-2,-1.704231228E0,3.832909924E0
1.256239667E1,2.988455494E0,1.139600696E0,-2.104016472E0,3.828373193E0
1.257231967E1,1.976594826E0,1.476588598E0,-2.071487388E0,3.221537054E0
1.258224267E1,6.575896398E-1,1.093709993E0,-2.075687005E0,2.436616963E0
1.259216567E1,-8.667297064E-1,2.323607486E-1,-1.716319031E0,1.936740281E0
1.260208867E1,-1.914408664E0,-4.891909254E-1,-8.356484661E-1,2.145361660E0
1.261201167E1,-2.416701592E0,-7.055121768E-1,3.008339828E-1,2.535487152E0
1.262193467E1,-2.530518229E0,-5.134586245E-1,1.116627570E0,2.813186698E0
1.263185767E1,-2.275781940E0,-1.003265262E-2,1.498612136E0,2.724907783E0
1.264178067E1,-1.857846647E0,4.188448280E-1,1.718641691E0,2.565298114E0
1.265170367E1,-1.410982838E0,5.824119151E-1,1.806311334E0,2.364917936E0
1.266162667E1,-9.375595146E-1,6.926418704E-1,1.775113515E0,2.123628639E0
1.267154967E1,-4.690576462E-1,6.810579515E-1,1.725011063E0,1.912986716E0
1.268147267E1,-7.217565458E-2,5.555837202E-1,1.705009493E0,1.794697736E0
1.269139567E1,1.528454863E-1,3.851900089E-1,1.643920707E0,1.695349043E0
1.270131867E1,3.283097203E-1,2.200979680E-1,1.545415735E0,1.595161491E0
1.271124167E1,4.182101493E-1,2.167796731E-2,1.438037905E0,1.497772573E0
1.272116467E1,5.477435176E-1,-2.089444041E-2,1.290460468E0,1.402051268E0
1.273108767E1,6.140365809E-1,2.853324294E-2,1.083430588E0,1.245663240E0
1.274101067E1,5.781751688E-1,1.653569198E-1,8.644663954E-1,1.053058206E0
1.275093367E1,4.915610211E-1,3.570461905E-1,6.551663344E-1,8.935083353E-1
1.276085667E1,3.664673705E-1,4.461507404E-1,4.855527878E-1,7.543940128E-1
1.277077967E1,2.165843761E-1,3.822003275E-1,4.412846875E-1,6.226701035E-1
1.278070267E1,9.877621002E-2,2.296727836E-1,4.512289010E-1,5.158622377E-1
1.279062567E1,1.151982614E-1,2.314503372E-2,4.109924559E-1,4.274589230E-1
1.280054867E1,2.884413209E-1,-1.653615975E-1,3.138550012E-1,4.572174705E-1
1.281047167E1,5.302675422E-1,-1.903508431E-1,1.264394604E-1,5.774115057E-1
1.282039467E1,7.235787575E-1,-5.581459701E-2,-1.376003332E-1,7.386577958E-1
1.283031767E1,8.549322179E-1,1.194217783E-1,-4.735180485E-1,9.845760512E-1
1.284024067E1,8.169603994E-1,1.505979627E-1,-8.332141972E-1,1.176584013E0
1.285016367E1,7.420039187E-1,-6.013861299E-2,-1.131836178E0,1.354710155E0
1.286008667E1,8.146978194E-1,-3.495161462E-1,-1.220717511E0,1.508656791E0
1.287000954E1,1.079758975E0,-7.513941085E-1,-1.082942346E0,1.703888692E0
1.287993254E1,1.426389082E0,-1.084743873E0,-7.043860030E-1,1.925464807E0
1.288985554E1,1.715070504E0,-1.121148638E0,-1.899701893E-1,2.057797311E0
1.289977854E1,1.844304788E0,-7.491785985E-1,1.267395687E-1,1.994690863E0
1.290970154E1,1.750205107E0,-1.615550601E-1,1.624397439E-1,1.765135866E0
1.291962454E1,1.505173150E0,2.249195820E-1,4.791383922E-2,1.522639408E0
1.292954754E1,1.137136095E0,2.209738809E-1,-1.661486328E-2,1.158526654E0
1.293947054E1,5.804207920E-1,-1.064280957E-1,1.136176859E-1,6.009361146E-1
1.294939354E1,8.209534630E-2,-4.117439693E-1,1.546101759E-1,4.474114981E-1
1.295931654E1,-2.109483911E-1,-6.538391626E-1,-1.750846401E-2,6.872491692E-1
1.296923954E1,-3.030557786E-1,-8.418745083E-1,-3.624526723E-1,9.653846033E-1
1.297916254E1,-2.506886999E-1,-9.299113566E-1,-7.880703302E-1,1.244441562E0
1.298908554E1,-5.787939504E-2,-1.033530450E0,-1.125569279E0,1.529196330E0
1.299900854E1,3.141184182E-1,-1.231742874E0,-1.280263216E0,1.804143784E0
1.300893154E1,8.059101851E-1,-1.484988123E0,-1.162764002E0,2.051024397E0
1.301885454E1,1.269087871E0,-1.718284426E0,-9.839222337E-1,2.351847860E0
1.302877754E1,1.574319545E0,-1.978570307E0,-1.080402900E0,2.749635052E0
1.303870054E1,1.711067500E0,-2.090640382E0,-1.520240986E0,3.099945460E0
1.304862354E1,1.614460680E0,-1.964551608E0,-2.132733902E0,3.318810059E0
1.305854654E1,1.413173644E0,-1.886073788E0,-2.642333364E0,3.540658087E0
1.306846954E1,1.078342341E0,-1.981085195E0,-2.725152158E0,3.537509722E0
1.307839254E1,4.934020901E-1,-2.149116046E0,-2.275583135E0,3.168662811E0
1.308831554E1,-2.492467766E-1,-2.163266308E0,-1.694778035E0,2.759369070E0
1.309823854E1,-9.312215714E-1,-1.987980232E0,-1.291190346E0,2.546843444E0
1.310816154E1,-1.366557302E0,-1.649402472E0,-1.032299026E0,2.377740241E0
1.311808454E1,-1.626810877E0,-1.103785915E0,-1.347838172E0,2.383594914E0
1.312800754E1,-1.758587091E0,-5.514754665E-1,-2.081525742E0,2.780198403E0
1.313793054E1,-2.425262208E0,-3.460733056E-2,-2.522788210E0,3.499650668E0
1.314785354E1,-3.422899232E0,4.610845292E-1,-1.756453296E0,3.874785965E0
1.315777654E1,-4.262241896E0,8.841083622E-1,-1.842491274E-1,4.356868292E0
1.316769954E1,-4.561446260E0,1.078176280E0,1.067077096E0,4.807068712E0
1.317762254E1,-4.456046689E0,1.104796314E0,2.342543256E0,5.154069838E0
1.318754554E1,-4.158592397E0,8.594658566E-1,4.147914212E0,5.936140547E0
1.319746854E1,-3.709177741E0,5.856442559E-1,5.626277440E0,6.764316413E0
1.320739154E1,-3.053620082E0,4.316104692E-1,5.758392938E0,6.532225687E0
1.321731454E1,-2.034376718E0,4.728994131E-1,4.770266118E0,5.207471683E0
1.322723754E1,-8.537672333E-1,7.345482802E-1,3.593998117E0,3.766338027E0
1.323716054E1,9.445036680E-2,1.014049866E0,2.531479511E0,2.728663871E0
1.324708354E1,7.072669262E-1,1.201993995E0,2.118621501E0,2.536448922E0
1.325700654E1,7.415681550E-1,1.266313952E0,2.123455979E0,2.581189580E0
1.326692954E1,-7.820998114E-2,1.339005952E0,2.076852793E0,2.472321028E0
1.327685254E1,-1.397690948E0,1.483701736E0,2.022498246E0,2.871482192E0
1.328677554E1,-2.263762404E0,1.592699683E0,1.950426489E0,3.386070878E0
1.329669854E1,-2.693689752E0,1.723907694E0,1.769566262E0,3.655022157E0
1.330662154E1,-2.999804940E0,1.908478564E0,1.446496195E0,3.838420424E0
1.331654454E1,-3.249297446E0,2.089931699E0,1.114169401E0,4.020835964E0
1.332646754E1,-3.457791030E0,2.262302939E0,8.627062373E-1,4.221207818E0
1.333639054E1,-3.662699393E0,2.371440634E0,5.684942262E-1,4.400259448E0
1.334631354E1,-3.916298983E0,2.350915738E0,2.091807778E-1,4.572522185E0
1.335623654E1,-4.148555359E0,2.242352239E0,-5.747111320E-2,4.716138045E0
1.336615954E1,-4.422819886E0,2.124310988E0,-1.922051413E-1,4.910292836E0
1.337608254E1,-4.665778421E0,1.943309258E0,-3.330106258E-1,5.065257666E0
1.338600554E1,-4.908853900E0,1.700458020E0,-4.411947866E-1,5.213737328E0
1.339592854E1,-5.155843797E0,1.436005998E0,-4.878834879E-1,5.374278443E0
1.340585154E1,-5.357330663E0,1.179155356E0,-5.116206984E-1,5.509369739E0
1.341577454E1,-5.360258948E0,9.454748905E-1,-4.903463352E-1,5.465046961E0
1.342569754E1,-5.144981425E0,6.755504590E-1,-4.505465309E-1,5.208665324E0
1.343562054E1,-4.733447663E0,3.647820568E-1,-2.806091217E-1,4.755768519E0
1.344554354E1,-4.252955348E0,2.431740046E-2,-7.354050435E-2,4.253660627E0
1.345546654E1,-3.759474905E0,-3.250724459E-1,7.803927898E-2,3.774309710E0
1.346538954E1,-3.240906984E0,-6.692851675E-1,1.997981894E-1,3.315318993E0
1.347531254E1,-2.692398394E0,-9.864966166E-1,2.847511431E-1,2.881539155E0
1.348523554E1,-2.127313533E0,-1.187184168E0,3.336422713E-1,2.458899405E0
1.349515854E1,-1.546069161E0,-1.304952353E0,3.709800323E-1,2.056904636E0
1.350508154E1,-9.943168290E-1,-1.326834973E0,4.066528717E-1,1.707197575E0
1.351500454E1,-4.583493479E-1,-1.274455031E0,4.865258376E-1,1.439106369E0
1.352492754E1,7.630631045E-2,-1.185245816E0,6.642086879E-1,1.360809861E0
1.353485054E1,6.150246142E-1,-1.069553391E0,9.483412687E-1,1.556133315E0
1.354477354E1,1.178853493E0,-9.873163962E-1,1.252473593E0,1.983224477E0
1.355469654E1,1.696403999E0,-8.521299398E-1,1.504540043E0,2.422303182E0
1.356461954E1,2.035697166E0,-6.847241557E-1,1.578131930E0,2.665222412E0
1.357454254E1,2.251561019E0,-5.226732516E-1,1.518606105E0,2.765660654E0
1.358446554E1,2.438997756E0,-3.980866277E-1,1.380486685E0,2.830711307E0
1.359438854E1,2.538037164E0,-2.902429211E-1,1.238505764E0,2.838973428E0
1.360431154E1,2.590023296E0,-1.614579964E-1,1.088029862E0,2.813911573E0
1.361423454E1,2.528270559E0,1.008059978E-3,9.228543520E-1,2.691433297E0
1.362415754E1,2.250414380E0,1.753392863E-1,7.426642156E-1,2.376269952E0
1.363408054E1,1.838226314E0,3.466732299E-1,5.577401002E-1,1.952007257E0
1.364400354E1,1.349149410E0,4.445240450E-1,3.215839970E-1,1.456441562E0
1.365392654E1,8.105188143E-1,4.230209094E-1,2.551015936E-2,9.146246260E-1
1.366384954E1,2.656438310E-1,3.013637406E-1,-3.717448481E-1,5.473399138E-1
1.367377254E1,-2.455082130E-1,7.936659694E-2,-8.537145352E-1,8.918530412E-1
1.368369554E1,-6.070933047E-1,-1.904730499E-1,-1.402547060E0,1.540123540E0
1.369361854E1,-9.387064460E-1,-3.677653062E-1,-2.011340443E0,2.249869216E0
1.370354154E1,-1.173768024E0,-3.876142645E-1,-2.497311891E0,2.786492934E0
1.371346454E1,-1.103647921E0,-2.662997425E-1,-2.653375247E0,2.886062107E0
1.372338754E1,-8.917480418E-1,-8.290006936E-2,-2.559610466E0,2.711769298E0
1.373331054E1,-5.070179164E-1,1.169027978E-1,-2.214850445E0,2.275147451E0
1.374323354E1,-9.358000875E-2,2.670288903E-1,-1.671599526E0,1.695378017E0
1.375315654E1,3.377486247E-1,3.434432280E-1,-1.076779892E0,1.179611089E0
1.376307954E1,7.645930284E-1,4.402924150E-1,-5.517492624E-1,1.040618642E0
1.377300254E1,1.139832830E0,5.745941877E-1,-1.642190516E-1,1.286990777E0
1.378292554E1,1.461955356E0,6.438076794E-1,1.007732534E-1,1.600611458E0
1.379284854E1,1.693247818E0,7.175831687E-1,1.409601434E-1,1.844419567E0
1.380277154E1,1.899566969E0,8.210584205E-1,1.834395804E-2,2.069499481E0
1.381269454E1,2.169719442E0,9.196413070E-1,-9.203977905E-2,2.358366789E0
1.382261854E1,2.399258178E0,9.915848637E-1,-2.263037641E-1,2.605934331E0
1.383254154E1,2.611767337E0,9.181531906E-1,-2.781557031E-1,2.782391867E0
1.384246454E1,2.842049401E0,7.728223997E-1,-2.238007904E-1,2.953741026E0
1.385238754E1,3.126195138E0,6.360566103E-1,-1.067502773E-1,3.192030650E0
1.386231046E1,3.366667728E0,4.408151561E-1,6.554165952E-2,3.396036705E0
1.387223346E1,3.496094677E0,2.817054015E-1,2.090660262E-1,3.513651168E0
1.388215646E1,3.573224422E0,4.601109678E-1,1.905959876E-1,3.607764086E0
1.389207946E1,3.400941183E0,7.662407738E-1,1.719907321E-2,3.486233162E0
1.390200246E1,2.973643035E0,8.998379570E-1,-2.154347404E-1,3.114269317E0
1.391192546E1,2.535284879E0,9.335337067E-1,-2.041976345E-1,2.709400538E0
1.392184846E1,2.087108810E0,9.367625391E-1,-5.968764648E-3,2.287702530E0
1.393177146E1,1.506773533E0,9.541983515E-1,1.017263496E-1,1.786395596E0
1.394169446E1,7.110266858E-1,9.191337687E-1,1.132441584E-1,1.167557310E0
1.395161746E1,-2.184382358E-1,6.926734453E-1,5.056904158E-2,7.280583718E-1
1.396154046E1,-1.100723729E0,8.922851086E-3,-3.985508966E-1,1.170690036E0
1.397146346E1,-1.751831072E0,-9.177070481E-1,-1.162887232E0,2.294211203E0
1.398138646E1,-2.293025087E0,-1.753465369E0,-1.951614643E0,3.484451831E0
1.399130946E1,-2.716574585E0,-2.699587546E0,-3.188235265E0,4.983211264E0
1.400123246E1,-2.966120592E0,-3.819556215E0,-4.646875834E0,6.706738110E0
1.401115546E1,-2.976552610E0,-4.767229074E0,-5.492008996E0,7.858021462E0
1.402107846E1,-2.521311203E0,-5.017366528E0,-5.525724041E0,7.878109116E0
1.403100146E1,-1.509401418E0,-3.607785852E0,-4.436367300E0,5.914031300E0
1.404092446E1,-7.935512178E-1,-8.865688705E-1,-2.058887662E0,2.377971047E0
1.405084746E1,-5.155340937E-1,1.736504350E0,9.493252820E-1,2.045101770E0
1.406077046E1,-1.701928595E-1,3.548658807E0,3.136513719E0,4.739162716E0
1.407069346E1,1.633193113E-1,4.538038101E0,3.934776769E0,6.008571480E0
1.408061646E1,1.466917303E-1,4.242946669E0,3.756165966E0,5.668588683E0
1.409053946E1,-2.224147810E-1,2.149597272E0,3.047396890E0,3.735888726E0
1.410046246E1,-1.311121166E-2,-6.194347304E-1,2.134594486E0,2.222693166E0
1.411038546E1,6.388694134E-1,-2.527892829E0,1.177834397E0,2.861064513E0
1.412030846E1,1.373260550E0,-3.013112910E0,6.300194333E-1,3.370699992E0
1.413023146E1,1.914203719E0,-2.282362981E0,8.558188751E-1,3.099319700E0
1.414015446E1,2.044998332E0,-8.697668964E-1,1.406294541E0,2.629862538E0
1.415007746E1,1.866462665E0,1.817729777E-1,1.729470735E0,2.551037694E0
1.416000046E1,1.696056821E0,3.836656398E-1,1.728447472E0,2.451803158E0
1.416992346E1,1.617074094E0,1.647230816E-1,1.545419828E0,2.242851926E0
1.417984646E1,1.580871789E0,-7.586060643E-2,1.274420532E0,2.032008400E0
1.418976946E1,1.498299456E0,-1.905712831E-1,9.179975816E-1,1.767466614E0
1.419969246E1,1.230879972E0,-6.809141099E-2,5.045194012E-1,1.332006671E0
1.420961546E1,7.501632696E-1,2.715370935E-1,2.516893047E-1,8.365553361E-1
1.421953846E1,2.075306936E-1,5.291420263E-1,2.016868401E-1,6.031068348E-1
1.422946146E1,-2.593164128E-1,6.164345241E-1,2.759049636E-1,7.234362953E-1
1.423938446E1,-5.235436097E-1,6.069649583E-1,3.888502197E-1,8.909033984E-1
1.424930746E1,-5.067243862E-1,5.020056832E-1,4.953783028E-1,8.684347830E-1
1.425923046E1,-2.296102184E-1,3.359751642E-1,5.290734677E-1,6.674720201E-1
1.426915346E1,3.356711090E-2,2.437446928E-1,4.866701907E-1,5.453311844E-1
1.427907646E1,2.247839266E-1,1.377405202E-1,4.069473521E-1,4.848777289E-1
1.428899946E1,3.148130675E-1,1.212537110E-2,2.751746464E-1,4.183005834E-1
1.429892246E1,3.991933595E-1,-5.635137141E-2,-1.776442587E-2,4.035423028E-1
1.430884546E1,5.156653637E-1,-1.790551919E-1,-2.418927334E-1,5.970624955E-1
1.431876846E1,6.013701962E-1,-2.841360891E-1,-2.957878357E-1,7.279216124E-1
1.432869146E1,6.611939366E-1,-3.374504167E-1,-2.360142352E-1,7.789434670E-1
1.433861446E1,7.086179253E-1,-3.454190022E-1,-1.214427222E-1,7.976227090E-1
1.434853746E1,8.084809135E-1,-2.970502496E-1,-6.251726031E-2,8.635905547E-1
1.435846046E1,9.082825059E-1,-2.010307825E-1,-1.343869959E-1,9.399203959E-1
1.436838346E1,9.746073268E-1,-9.437523007E-2,-2.644267331E-1,1.014242389E0
1.437830646E1,1.042089019E0,-4.245780230E-2,-4.277768885E-1,1.127273372E0
1.438822946E1,1.086900618E0,2.237729430E-3,-5.845753849E-1,1.234133843E0
1.439815246E1,1.128663479E0,5.318510413E-2,-7.126427101E-1,1.335877815E0
1.440807546E1,1.128118372E0,3.125161350E-2,-7.964461742E-1,1.381287166E0
1.441799846E1,1.125074750E0,-2.951089740E-2,-8.394350499E-1,1.404035359E0
1.442792146E1,1.101916268E0,-1.083208394E-1,-8.102673841E-1,1.372037208E0
1.443784446E1,1.077728968E0,-2.469793725E-1,-8.199649912E-1,1.376532283E0
1.444776746E1,1.027549479E0,-3.920838761E-1,-8.717394546E-1,1.403394946E0
1.445769046E1,8.946288188E-1,-5.156448984E-1,-9.065752651E-1,1.374092099E0
1.446761346E1,7.509938666E-1,-6.348865825E-1,-9.025440484E-1,1.334787818E0
1.447753646E1,6.534997317E-1,-6.411980671E-1,-9.233697841E-1,1.300310970E0
1.448745946E1,6.026666701E-1,-5.093193805E-1,-9.731912774E-1,1.252882520E0
1.449738246E1,6.417083828E-1,-3.492916131E-1,-1.008170199E0,1.245070853E0
1.450730546E1,7.279486741E-1,-2.793618375E-1,-9.533430500E-1,1.231590549E0
1.451722846E1,8.368308462E-1,-3.661491358E-1,-8.241412188E-1,1.230268184E0
1.452715146E1,9.631502925E-1,-5.552808344E-1,-6.553220165E-1,1.290520142E0
1.453707446E1,1.102679768E0,-7.477191335E-1,-4.881284863E-1,1.418892524E0
1.454699746E1,1.288709665E0,-9.078322703E-1,-4.266619706E-1,1.633086792E0
1.455692046E1,1.442571836E0,-9.406000668E-1,-4.204934505E-1,1.772725791E0
1.456684346E1,1.535389806E0,-8.513832504E-1,-4.379272163E-1,1.809435145E0
1.457676646E1,1.555907540E0,-7.238817894E-1,-4.859821196E-1,1.783544712E0
1.458668946E1,1.549800269E0,-6.697634697E-1,-5.467095472E-1,1.774642305E0
1.459661246E1,1.621926844E0,-7.453112501E-1,-6.076831426E-1,1.885580640E0
1.460653546E1,1.796607441E0,-9.537422687E-1,-7.271828350E-1,2.160142933E0
1.461645846E1,2.045914152E0,-1.239526688E0,-9.062169769E-1,2.558011012E0
1.462638146E1,2.433339405E0,-1.655573038E0,-1.152368091E0,3.160698493E0
1.463630446E1,2.927227253E0,-2.260161104E0,-1.376964322E0,3.946266381E0
1.464622746E1,3.417878228E0,-3.038169984E0,-1.413127889E0,4.786365935E0
1.465615046E1,3.841149106E0,-3.956143665E0,-1.207789755E0,5.644843243E0
1.466607346E1,4.199803573E0,-4.707492750E0,-9.616886348E-1,6.381511033E0
1.467599646E1,4.454419994E0,-4.949430068E0,-1.039019816E0,6.739308396E0
1.468591946E1,4.620532081E0,-4.724801677E0,-1.488417808E0,6.774101799E0
1.469584246E1,4.528428202E0,-4.201120366E0,-2.109861495E0,6.527448953E0
1.470576546E1,3.827844351E0,-3.618499705E0,-2.737679232E0,5.936397904E0
1.471568846E1,2.689827666E0,-3.180246214E0,-3.658271881E0,5.543653309E0
1.472561146E1,1.502072518E0,-2.579298041E0,-5.283446415E0,6.068262210E0
1.473553446E1,3.578326410E-1,-2.067244502E0,-8.306317744E0,8.567173308E0
1.474545746E1,-4.315394256E-1,-1.434289840E0,-1.158559708E1,1.168201495E1
1.475538046E1,-6.975099698E-1,-6.931342059E-1,-1.230215465E1,1.234139231E1
1.476530346E1,-6.624135196E-1,-1.911443102E-1,-9.297509090E0,9.323036152E0
1.477522646E1,-6.405009328E-1,1.641360211E-1,-4.508081061E0,4.556311769E0
1.478514946E1,-2.456177022E-1,4.695700085E-1,-1.246008326E0,1.354016543E0
1.479507246E1,6.904050180E-1,6.860579056E-1,1.792002028E-1,9.896702741E-1
1.480499546E1,2.106316182E0,6.519247842E-1,1.926457583E0,2.927936577E0
1.481491846E1,3.334480560E0,2.841963154E-1,4.671397887E0,5.746432491E0
1.482484146E1,3.936571864E0,-3.039265752E-2,6.991229242E0,8.023391308E0
1.483476446E1,4.051553267E0,-3.356331021E-1,7.738854235E0,8.741715983E0
1.484468746E1,3.714887547E0,-8.660679477E-1,7.262440646E0,8.203261992E0
1.485461046E1,3.209913817E0,-1.484837265E0,6.488117266E0,7.389448834E0
1.486453379E1,2.703794618E0,-2.218736504E0,5.571773204E0,6.578598152E0
1.487445679E1,2.065800971E0,-2.958010504E0,4.337546432E0,5.641956119E0
1.488437979E1,1.394297808E0,-3.485580214E0,2.884478259E0,4.734295157E0
1.489430279E1,8.093528064E-1,-3.351624597E0,1.247581812E0,3.666728757E0
1.490422579E1,5.964505682E-1,-2.451505389E0,-2.910966146E-1,2.539757703E0
1.491414879E1,3.865581843E-1,-1.220387582E0,-8.887686662E-1,1.558423184E0
1.492407179E1,-5.407431945E-3,-2.000525433E-1,-5.756700754E-2,2.082407759E-1
1.493399479E1,-4.772756886E-1,4.377629095E-1,1.383922655E0,1.527962815E0
1.494391779E1,-7.960028091E-1,7.937799901E-1,2.562755098E0,2.798467588E0
1.495384079E1,-8.483940075E-1,1.179221429E0,3.266794946E0,3.575232131E0
1.496376379E1,-7.868630994E-1,1.664203529E0,3.532309992E0,3.983207351E0
1.497368679E1,-1.036434177E0,2.128780015E0,3.347154400E0,4.099919845E0
1.498360979E1,-1.647111971E0,2.344076834E0,3.075401545E0,4.203066584E0
1.499353279E1,-2.176195964E0,2.474065116E0,2.846921593E0,4.354513707E0
1.500345579E1,-2.220681142E0,2.536734404E0,2.697895947E0,4.317995914E0
1.501337879E1,-1.970015831E0,2.513640241E0,2.489752611E0,4.049471286E0
1.502330179E1,-1.923447582E0,2.491186933E0,2.183674260E0,3.830678297E0
1.503322479E1,-2.155617419E0,2.549302409E0,1.971624985E0,3.877232816E0
1.504314779E1,-2.564667723E0,2.697827534E0,1.927044936E0,4.191574420E0
1.505307079E1,-3.166770429E0,2.945045473E0,1.812246404E0,4.688919366E0
1.506299379E1,-3.639820700E0,3.258253918E0,1.809132177E0,5.209363930E0
1.507291679E1,-4.021693583E0,3.597301210E0,1.744559767E0,5.670809823E0
1.508283979E1,-4.153246872E0,3.833605320E0,1.435796814E0,5.831595136E0
1.509276279E1,-3.869003195E0,3.815025208E0,1.035670238E0,5.531384628E0
1.510268579E1,-3.318697171E0,3.427919651E0,6.851109490E-1,4.820141187E0
1.511260879E1,-2.765919822E0,2.794788988E0,4.282607456E-1,3.955321127E0
1.512253179E1,-2.238011997E0,2.135968582E0,3.231779480E-1,3.110547133E0
1.513245479E1,-1.799910972E0,1.527359971E0,-3.780809641E-2,2.360918771E0
1.514237779E1,-1.469374596E0,8.107573807E-1,-7.452685654E-1,1.836250110E0
1.515230079E1,-1.284944205E0,7.128691435E-2,-1.304220136E0,1.832253693E0
1.516222379E1,-1.199004022E0,-3.853765351E-1,-1.678342681E0,2.098323110E0
1.517214679E1,-6.545204363E-1,-2.637088412E-1,-2.262724084E0,2.370202446E0
1.518206979E1,2.874802944E-1,-2.914339989E-1,-2.737402074E0,2.767841905E0
1.519199279E1,1.551364838E0,-7.928280634E-1,-3.664287497E0,4.057377485E0
1.520191579E1,3.326885612E0,-1.400842597E0,-4.849921567E0,6.045847093E0
1.521183879E1,5.344821129E0,-1.889848166E0,-5.257353215E0,7.731649360E0
1.522176179E1,6.391991964E0,-2.408755810E0,-4.318274009E0,8.081284319E0
1.523168479E1,5.961774302E0,-3.047874023E0,-2.580462806E0,7.175728338E0
1.524160779E1,4.522051229E0,-3.207034648E0,-1.430750374E0,5.725475105E0
1.525153079E1,3.113525975E0,-2.219538742E0,-1.310976155E0,4.042159659E0
1.526145379E1,2.271274614E0,-7.319948012E-1,-7.390939057E-1,2.498152230E0
1.527137679E1,1.300628630E0,2.765382171E-2,4.374418974E-1,1.372499537E0
1.528129979E1,-2.072884727E-1,-4.308614409E-1,1.861522791E0,1.921946200E0
1.529122279E1,-1.862846162E0,-1.626925775E0,3.638476717E0,4.399499531E0
1.530114579E1,-3.141512504E0,-3.114384347E0,5.070341717E0,6.728807903E0
1.531106879E1,-4.278661170E0,-4.687122220E0,5.449200361E0,8.364797707E0
1.532099179E1,-4.891589119E0,-6.294689618E0,4.191125135E0,9.006458316E0
1.533091479E1,-4.835404978E0,-6.998623046E0,-4.900142133E-1,8.520679537E0
1.534083779E1,-3.494228831E0,-4.913827541E0,-7.263223003E0,9.439795794E0
1.535076079E1,-1.282901772E0,1.290001023E-1,-6.014092848E0,6.150755301E0
1.536068379E1,-1.076873521E0,3.653984118E0,-2.015113066E0,4.309517048E0
1.537060679E1,-1.312580631E0,5.463386875E0,1.491871465E0,5.813531159E0
1.538052979E1,-1.209344165E0,6.678703167E0,4.778741072E0,8.300840652E0
1.539045279E1,-1.065978696E0,7.031982581E0,6.743145915E0,9.800770706E0
1.540037579E1,-9.592610170E-1,6.570139083E0,6.562829479E0,9.335825622E0
1.541029879E1,-8.619801593E-1,5.188389984E0,5.974647532E0,7.959824970E0
1.542022179E1,-5.177284075E-1,3.116042617E0,5.344572623E0,6.208238141E0
1.543014479E1,-1.035689827E0,3.869242930E-1,5.663092679E0,5.770007150E0
1.544006779E1,-1.604934689E0,-2.057628171E0,5.702107641E0,6.270859637E0
1.544999079E1,-1.515463519E0,-3.300493035E0,5.007627990E0,6.185969773E0
1.545991379E1,-9.863488282E-1,-3.044497840E0,4.347809465E0,5.398638556E0
1.546983679E1,-1.979710807E-1,-1.800016807E0,3.858574101E0,4.262375763E0
1.547975979E1,6.965095112E-1,-7.212154591E-1,3.358395088E0,3.504867302E0
1.548968279E1,1.928719432E0,6.280377388E-2,1.018551564E0,2.182051844E0
1.549960579E1,2.538179251E0,6.354923540E-1,-1.676356382E0,3.107470862E0
1.550952879E1,2.433750903E0,7.256108111E-1,-3.593896376E0,4.400652868E0
1.551945179E1,2.152832537E0,2.669306570E-1,-5.129292760E0,5.569163683E0
1.552937479E1,1.837833235E0,-2.157254201E-1,-5.241387393E0,5.558444950E0
1.553929779E1,1.504798636E0,-1.831827414E-1,-3.663396966E0,3.964650323E0
1.554922079E1,1.046292875E0,2.412496859E-1,-1.605296339E0,1.931296593E0
1.555914379E1,3.263290125E-1,6.976810008E-1,4.146552980E-2,7.713422026E-1
1.556906679E1,-5.462528796E-1,9.943921119E-1,1.034698212E0,1.535515637E0
1.557898979E1,-1.182984697E0,1.114710853E0,1.551643458E0,2.247138291E0
1.558891279E1,-1.366540345E0,1.119365237E0,1.670599359E0,2.431319244E0
1.559883579E1,-1.277593962E0,8.968588006E-1,1.514591991E0,2.174992170E0
1.560875879E1,-1.216566572E0,4.433937782E-1,1.381804209E0,1.893677676E0
1.561868179E1,-1.121302419E0,-5.492582023E-2,1.305801954E0,1.722049565E0
1.562860479E1,-8.251479632E-1,-3.210021991E-1,1.117924483E0,1.426066872E0
1.563852779E1,-4.002764100E-1,-2.844623637E-1,8.141839953E-1,9.508078770E-1
1.564845079E1,-1.526474118E-2,-1.050042987E-1,4.256868012E-1,4.387119417E-1
1.565837379E1,2.877863596E-1,1.460271943E-1,3.085166395E-2,3.241862974E-1
1.566829679E1,5.569831051E-1,2.648776996E-1,-2.877734958E-1,6.805908903E-1
1.567821979E1,7.931098992E-1,1.017462301E-1,-5.107927327E-1,9.488334012E-1
1.568814279E1,8.910511999E-1,-3.034868646E-1,-7.196068901E-1,1.184867332E0
1.569806579E1,7.568119924E-1,-5.075190228E-1,-9.454286975E-1,1.313078586E0
1.570798879E1,4.411003540E-1,-5.531974715E-1,-1.149953776E0,1.350181711E0
1.571791179E1,1.461390223E-1,-5.811845845E-1,-1.292765002E0,1.424911746E0
1.572783479E1,-4.341455296E-2,-5.448336142E-1,-1.365864553E0,1.471160925E0
1.573775779E1,-1.517890406E-1,-3.798824912E-1,-1.403101961E0,1.461521718E0
1.574768079E1,-5.466868892E-2,-1.780716902E-1,-1.472662777E0,1.484396796E0
1.575760379E1,3.871704608E-1,-1.536975718E-1,-1.462977449E0,1.521126861E0
1.576752679E1,1.169136590E0,-3.027933848E-1,-1.248462841E0,1.737015736E0
1.577744979E1,1.902534431E0,-4.599098235E-1,-8.787632762E-1,2.145548695E0
1.578737279E1,2.405021194E0,-6.512470919E-1,-4.803417492E-1,2.537514121E0
1.579729579E1,2.723893252E0,-8.462336075E-1,-1.437795246E-1,2.855937380E0
1.580721879E1,2.947132052E0,-9.118808824E-1,1.642722613E-1,3.089352594E0
1.581714179E1,3.189894120E0,-9.552566975E-1,4.768736194E-1,3.363829411E0
1.582706479E1,3.465268157E0,-1.130266786E0,5.864961952E-1,3.691823965E0
1.583698779E1,3.650534846E0,-1.589912900E0,3.554270965E-1,3.997568775E0
1.584691079E1,3.714771187E0,-2.238997107E0,-1.135460575E-1,4.338839214E0
1.585683379E1,3.616817461E0,-3.058512447E0,-5.283221005E-1,4.766024672E0
1.586675717E1,3.465359373E0,-4.128119633E0,-7.320304692E-1,5.439297371E0
1.587668017E1,3.414698804E0,-4.920436649E0,-9.377279145E-1,6.062194189E0
1.588660317E1,3.441518521E0,-5.019997190E0,-1.455718131E0,6.258077724E0
1.589652617E1,3.418543641E0,-4.693571699E0,-2.453686985E0,6.303700162E0
1.590644917E1,3.254822772E0,-4.551796600E0,-3.905926607E0,6.824147289E0
1.591637217E1,2.967122513E0,-4.788856755E0,-6.491043797E0,8.594801604E0
1.592629517E1,2.495077085E0,-4.883755311E0,-1.037351254E1,1.173397793E1
1.593621817E1,1.734679434E0,-4.605547714E0,-1.272675840E1,1.364516624E1
1.594614117E1,8.416004200E-1,-3.919032556E0,-1.119498436E1,1.189095380E1
1.595606417E1,2.142703405E-1,-2.869662584E0,-6.917026906E0,7.491737872E0
1.596598717E1,-3.095913577E-1,-1.891822770E0,-2.831781397E0,3.419623676E0
1.597591017E1,-6.848530868E-1,-1.023763261E0,-1.666480215E-1,1.242934643E0
1.598583317E1,-1.112075221E0,-4.756990600E-1,1.776619173E0,2.149273500E0
1.599575617E1,-1.395524408E0,-2.288682067E-1,4.065599449E0,4.304528767E0
1.600567917E1,-1.591048429E0,-5.952114701E-2,6.434739203E0,6.628789217E0
1.601560217E1,-1.718703818E0,1.919360232E-1,8.174882276E0,8.355805316E0
1.602552617E1,-1.672242281E0,3.191913164E-1,8.513536634E0,8.682084045E0
1.603544817E1,-1.590851232E0,3.439566135E-2,6.980943990E0,7.159997883E0
1.604537217E1,-1.851262389E0,-5.651866025E-1,3.609354075E0,4.095612918E0
1.605529417E1,-1.982684408E0,-1.044420889E0,3.397641965E-1,2.266559544E0
1.606521717E1,-1.646001146E0,-1.334795372E0,-1.188768105E0,2.429849392E0
1.607514017E1,-8.748863529E-1,-1.471770492E0,-1.142376296E0,2.058290095E0
1.608506417E1,-1.995800883E-1,-1.367197718E0,-2.853230739E-1,1.410840554E0
1.609498617E1,-1.948480828E-1,-1.027724749E0,5.682452810E-1,1.190414480E0
1.610490917E1,-8.246763121E-1,-5.839023703E-1,7.316330047E-1,1.247525491E0
1.611483217E1,-1.705844183E0,3.547681153E-2,1.098425334E0,2.029211964E0
1.612475617E1,-2.519974237E0,6.827039427E-1,2.093737944E0,3.346654062E0
1.613467917E1,-3.022920445E0,1.201687601E0,2.795533923E0,4.289185357E0
1.614460217E1,-3.402604716E0,1.747741529E0,3.161650314E0,4.962696043E0
1.615452517E1,-3.967238756E0,2.290792328E0,3.257952787E0,5.621473935E0
1.616444817E1,-4.727556593E0,2.745027428E0,2.996845372E0,6.234264119E0
1.617437117E1,-5.435512029E0,3.131581008E0,2.625824336E0,6.800481164E0
1.618429417E1,-5.932475073E0,3.447036538E0,2.188049293E0,7.201658219E0
1.619421717E1,-6.225859703E0,3.657561445E0,1.657730076E0,7.408586490E0
1.620414017E1,-6.152588244E0,3.772990744E0,1.307835177E0,7.334864287E0
1.621406317E1,-5.814371842E0,3.801531004E0,1.044079996E0,7.024860207E0
1.622398617E1,-5.439329091E0,3.852436863E0,9.049935932E-1,6.726558121E0
1.623390917E1,-5.095765995E0,3.946870565E0,8.438597842E-1,6.500516724E0
1.624383217E1,-4.631515784E0,4.007582206E0,6.180904555E-1,6.155785035E0
1.625375517E1,-4.105309060E0,3.827480947E0,2.280681615E-1,5.617400463E0
1.626367817E1,-3.667958379E0,3.512574470E0,1.401424102E-1,5.080525364E0
1.627360117E1,-3.182024060E0,3.236202314E0,4.142002384E-1,4.557394472E0
1.628352417E1,-2.437654358E0,3.064523969E0,1.003369196E0,4.042303263E0
1.629344717E1,-1.714885732E0,2.885958774E0,1.196010393E0,3.563710423E0
1.630337017E1,-1.195497154E0,2.516695411E0,8.826980138E-1,2.922691400E0
