"Time (s)","Linear Acceleration x (m/s^2)","Linear Acceleration y (m/s^2)","Linear Acceleration z (m/s^2)","Absolute acceleration (m/s^2)"
3.887083265E-3,7.699537557E-1,4.404239774E-2,-1.032413632E0,1.288660710E0
1.381108328E-2,5.430455357E-1,-7.212248147E-2,-4.613037997E-1,7.161712797E-1
2.373408328E-2,6.022105873E-1,-1.213621768E-1,-9.704740763E-2,6.219361452E-1
3.365808330E-2,2.042262858E-1,-3.173488587E-2,-3.950063145E-1,4.458087789E-1
4.358108330E-2,-6.894802809E-2,7.641901553E-2,-8.506447470E-1,8.568489844E-1
5.350508331E-2,9.441791475E-2,-1.064076304E-2,-9.159604847E-1,9.208754411E-1
6.342808332E-2,2.701016021E-1,-8.029805839E-2,-7.601514834E-1,8.106990387E-1
7.335208333E-2,3.935883647E-1,-8.779009581E-3,-5.460761476E-1,6.731924174E-1
8.327508334E-2,2.844573936E-1,2.749448508E-2,-4.370524728E-1,5.221942354E-1
9.319908335E-2,1.801839969E-1,7.528027028E-2,-3.868020862E-1,4.333004105E-1
1.031220832E-1,2.163674444E-1,1.918255109E-1,-2.674411190E-1,3.938739008E-1
1.130460833E-1,-9.524061799E-2,5.273381603E-1,1.064333582E-1,5.463372313E-1
1.229695416E-1,-1.165582214E0,6.551898694E-1,5.608479685E-1,1.449967622E0
1.328935416E-1,-2.139288631E-1,2.328370044E-1,9.241857630E-1,9.767793782E-1
1.428165416E-1,9.399077564E-1,-9.700004518E-2,8.705340511E-1,1.284782135E0
1.527405416E-1,1.327577277E0,-3.926747373E-1,6.759837377E-1,1.540652099E0
1.626635416E-1,1.453740603E0,-6.909847695E-1,1.519796598E-1,1.616762045E0
1.725875416E-1,1.337340665E0,-8.560703784E-1,-5.020887136E-1,1.665361710E0
1.825105416E-1,9.491258919E-1,-8.187522787E-1,-9.748530561E-1,1.587933794E0
1.924345416E-1,5.427049354E-1,-6.813535282E-1,-9.524944729E-1,1.290742809E0
2.023575417E-1,6.136392626E-1,-9.793548274E-1,-5.327865958E-1,1.272615645E0
2.122815417E-1,1.215565968E-1,-7.690132311E-1,-1.073045933E-1,7.859208812E-1
2.222045417E-1,-1.361728817E-1,-4.349033287E-1,5.803075022E-1,7.378622880E-1
2.321285416E-1,2.968397498E-2,-1.720212838E-1,9.730509442E-1,9.885851508E-1
2.420515416E-1,8.209607720E-2,1.357077357E-1,1.115596706E0,1.126815143E0
2.519755416E-1,-1.097338191E-1,3.536647457E-1,1.145288283E0,1.203663372E0
2.618985416E-1,-4.177353188E-1,3.330407390E-1,8.948853654E-1,1.042227781E0
2.718225416E-1,-5.946630013E-1,1.183986618E-1,4.141167694E-1,7.342581473E-1
2.817455416E-1,-5.490643671E-1,-1.685877988E-1,-4.521417975E-2,5.761404752E-1
2.916695416E-1,-3.830826724E-1,-3.014996883E-1,-3.130388761E-1,5.793511317E-1
3.015925416E-1,-3.311933112E-1,-2.374317464E-1,-6.730724090E-1,7.868222871E-1
3.115165416E-1,-2.118188953E-1,-1.129382394E-1,-8.333510220E-1,8.672348103E-1
3.214395416E-1,1.527570471E-1,-6.021667331E-2,-6.698517627E-1,6.896826423E-1
3.313635417E-1,4.878250158E-1,-1.391187090E-1,-5.836135179E-1,7.732606284E-1
3.412865417E-1,5.754893965E-1,-3.168405895E-1,-6.814333427E-1,9.465344183E-1
3.512105417E-1,3.680927503E-1,-4.569205807E-1,-8.832482368E-1,1.060375470E0
3.611335417E-1,5.285415173E-2,-5.428439529E-1,-1.134056951E0,1.258395123E0
3.710575416E-1,-1.626695395E-3,-5.089686938E-1,-1.687846745E0,1.762917585E0
3.809805416E-1,5.314358890E-2,-1.233310805E-1,-2.425864179E0,2.429578525E0
3.909035416E-1,3.782882479E-1,-3.974198990E-1,-3.073587154E0,3.122175934E0
4.008275416E-1,7.007861647E-1,-4.956387962E-1,-3.688649921E0,3.787201777E0
4.107515416E-1,8.332200444E-1,9.123648857E-1,-3.402121736E0,3.619543843E0
4.206745416E-1,9.740806389E-1,1.558704994E0,-3.039289725E0,3.551855344E0
4.305985416E-1,9.187887830E-1,1.169219182E0,-2.788406752E0,3.160135842E0
4.405215416E-1,4.310763261E-1,8.193280102E-1,-1.922023639E0,2.133377617E0
4.504445416E-1,-1.044119757E-1,4.349343190E-1,-1.188182872E0,1.269585861E0
4.603685417E-1,8.886393696E-1,3.915383309E-1,2.658164116E0,2.829985629E0
4.702915417E-1,-1.288346261E-1,3.740878274E-1,2.861379418E0,2.888603856E0
4.802155417E-1,-2.726205241E0,-1.150817337E0,3.517493148E0,4.596665488E0
4.901385417E-1,-1.523536769E0,-1.518448230E0,3.561663015E0,4.160804339E0
5.000625416E-1,-1.886735693E-1,-1.187649387E0,2.897017613E0,3.136689311E0
5.099855416E-1,2.333115059E-1,-1.259417892E0,1.857917690E0,2.256640386E0
5.199095416E-1,3.488562879E-1,-1.320967438E0,6.914022607E-1,1.531238965E0
5.298325416E-1,6.112381035E-1,-6.652039571E-1,-1.032873808E0,1.372201380E0
5.397565416E-1,7.918185416E-1,2.713910593E-1,-2.490352535E0,2.627258164E0
5.496795416E-1,1.080624217E0,1.013788496E0,-2.786311110E0,3.155795528E0
5.596035416E-1,1.002345495E0,1.438228086E0,-1.985291097E0,2.648504721E0
5.695265416E-1,2.558267945E-1,1.371830028E0,-6.951298606E-1,1.559028704E0
5.794505416E-1,4.133952230E-2,9.472207229E-1,6.286592978E-1,1.137606508E0
5.893735416E-1,3.523491222E-1,5.468938807E-1,1.440670906E0,1.580751556E0
5.992975417E-1,1.132193443E-1,4.081653272E-1,1.924785864E0,1.970841997E0
6.092205417E-1,2.931910872E-2,5.308178383E-1,2.119511594E0,2.185167404E0
6.191445417E-1,3.493834144E-1,6.424933715E-1,1.167328193E0,1.377505576E0
6.290675417E-1,9.573915160E-1,7.776928380E-1,-2.796483511E-1,1.264756050E0
6.389915416E-1,1.147354104E0,1.000906568E0,-1.492316439E0,2.131957727E0
6.489145416E-1,1.035361505E0,1.475483766E0,-1.831816304E0,2.569937113E0
6.588385416E-1,6.995942098E-1,1.908947218E0,-1.195979549E0,2.358787532E0
6.687615416E-1,-3.504470229E-2,2.060329585E0,-4.101815933E-1,2.101055704E0
6.786855416E-1,-1.852723901E-1,1.855049631E0,-2.339061677E-2,1.864425411E0
6.886085416E-1,-1.547141102E-1,1.592955791E0,5.756355768E-1,1.700823602E0
6.985325416E-1,-5.014159915E-1,1.390207243E0,1.369701496E0,2.014987931E0
7.084555416E-1,-4.967494018E-1,1.258401939E0,1.495548195E0,2.016680394E0
7.183795416E-1,-1.620127875E-1,1.088622623E0,1.517978114E0,1.874994644E0
7.283025417E-1,-3.357432855E-1,9.579190810E-1,1.352412449E0,1.690961842E0
7.382265417E-1,-7.310390007E-1,9.531483378E-1,1.010214093E0,1.569535692E0
7.481495417E-1,-4.534838797E-1,1.102004853E0,1.362839203E0,1.810357153E0
7.580735416E-1,-5.942237292E-1,1.461096400E0,-1.072379351E-2,1.577345723E0
7.679965416E-1,-7.227586124E-1,1.714902982E0,-1.909194848E0,2.666139009E0
7.779205416E-1,-3.695701224E-1,2.196744834E0,-1.341262393E0,2.600241286E0
7.878435416E-1,-1.384707059E0,2.196128976E0,-1.361801907E0,2.931706082E0
7.977675416E-1,-1.897378648E0,2.115848752E0,-7.392120194E-1,2.936544923E0
8.076905416E-1,-1.966410730E0,2.091683525E0,-8.899748737E-1,3.005655736E0
8.176145416E-1,-1.613014956E0,1.862227673E0,-1.694407906E0,2.990104899E0
8.275375416E-1,-1.290281104E0,1.898201498E0,-1.951712292E0,3.012835064E0
8.374615416E-1,-2.039211489E0,1.724138659E0,-2.370747154E0,3.570921405E0
8.473845416E-1,-2.867433918E0,2.124944680E0,-2.500210941E0,4.357593592E0
8.573085417E-1,-2.368414992E0,2.643779381E0,-2.459178105E0,4.318161176E0
8.672315417E-1,-2.256417424E0,2.624567769E0,-2.591541526E0,4.323871303E0
8.771555417E-1,-1.902352436E0,2.250776322E0,-2.755026752E0,4.034242339E0
8.870785417E-1,-1.475753469E0,1.801400696E0,-3.041095346E0,3.830294202E0
8.970025416E-1,-1.261433574E0,1.380283348E0,-3.120751964E0,3.638061243E0
9.069255416E-1,-1.062558075E0,6.974167798E-1,-3.243995483E0,3.484096227E0
9.168495416E-1,-5.350520995E-1,9.894439057E-3,-3.137439333E0,3.182751046E0
9.267725416E-1,-7.998605096E-1,-3.412962035E-1,-2.786600547E0,2.919144145E0
9.366965416E-1,-9.927414429E-1,-4.820326909E-1,-2.387990009E0,2.630662914E0
9.466195416E-1,-1.404450329E0,-6.418834338E-1,-2.399215493E0,2.853196462E0
9.565435416E-1,-1.224144710E0,-8.061828846E-1,-3.253345181E0,3.568293147E0
9.664665416E-1,-3.750263786E-1,-7.282748026E-1,-3.662877733E0,3.753358797E0
9.763905416E-1,-4.006336749E-2,-9.171249577E-1,-2.939774208E0,3.079772014E0
9.863135417E-1,5.408966839E-2,-1.109279374E0,-2.581272061E0,2.810051935E0
9.962375417E-1,4.058733648E-1,-1.330223142E0,-2.457713377E0,2.823930212E0
1.006160542E0,1.161873910E0,-2.222739508E0,-1.973845757E0,3.191643617E0
1.016084542E0,2.389055371E0,-3.417443195E0,-9.999013585E-1,4.287925639E0
1.026007542E0,2.486712059E0,-3.714624130E0,-7.530658275E-1,4.533131085E0
1.035930542E0,2.682773293E0,-3.305817509E0,-1.109122084E0,4.399528809E0
1.045854542E0,2.153639452E0,-3.048428923E0,-1.491506599E0,4.019412112E0
1.055777542E0,1.129588509E0,-2.763594677E0,-1.873639684E0,3.524762602E0
1.065701542E0,5.607947588E-1,-2.650579693E0,-2.186697856E0,3.481624762E0
1.075624542E0,1.022245324E0,-2.853578648E0,-2.055669354E0,3.662468170E0
1.085548542E0,1.833766935E0,-3.057863991E0,-1.422225572E0,3.838744448E0
1.095471542E0,1.963328370E0,-3.325353349E0,-7.873059529E-1,3.941127231E0
1.105395542E0,1.801132455E0,-3.451324301E0,-1.380358046E-1,3.895480900E0
1.115318542E0,1.253473467E0,-3.287741719E0,5.300933683E-1,3.558291770E0
1.125241958E0,1.837329644E-1,-3.311766759E0,1.707412114E0,3.730524493E0
1.135164958E0,-6.427440709E-1,-3.319864568E0,3.061502713E0,4.561515050E0
1.145088958E0,-1.820393769E0,-3.250054953E0,3.030808924E0,4.802342491E0
1.155011958E0,-2.284817643E0,-2.862844146E0,3.234665081E0,4.886647772E0
1.164935958E0,-2.954592222E0,-2.445544152E0,3.591764481E0,5.254624010E0
1.174858958E0,-4.093154452E0,-2.197501610E0,3.387421251E0,5.749569499E0
1.184782958E0,-4.752510463E0,-1.822632521E0,3.144785190E0,5.983144566E0
1.194705958E0,-5.267435569E0,-1.462980373E0,2.893773578E0,6.185476099E0
1.204629958E0,-5.763975275E0,-1.081090240E0,2.789105494E0,6.493941526E0
1.214552958E0,-6.257990153E0,-5.398342448E-1,2.916327458E0,6.925231232E0
1.224476958E0,-6.798721361E0,7.725633681E-3,3.152456737E0,7.494041320E0
1.234399958E0,-7.076742432E0,7.031534100E-1,3.162847239E0,7.783206976E0
1.244323958E0,-7.526741810E0,1.542222132E0,2.698271922E0,8.143154348E0
1.254246958E0,-7.447921343E0,2.384746850E0,1.604524507E0,7.983298113E0
1.264170958E0,-6.603965226E0,3.197043218E0,7.757080007E-1,7.378019039E0
1.274093958E0,-6.300219330E0,3.559685487E0,1.029279524E-1,7.237037966E0
1.284017958E0,-6.342787060E0,3.674019895E0,-1.645435721E-1,7.331878645E0
1.293940958E0,-6.190804476E0,3.742309819E0,-1.281469935E-1,7.235147856E0
1.303864958E0,-6.034964485E0,3.741731529E0,-2.628903772E-1,7.105664115E0
1.313787958E0,-6.157249644E0,3.788701628E0,-3.526772971E-1,7.238118850E0
1.323711958E0,-6.058481986E0,3.950090335E0,-7.629036216E-1,7.272581355E0
1.333634958E0,-5.731705077E0,4.173438478E0,-1.252283558E0,7.199878188E0
1.343558958E0,-5.290232109E0,4.187974656E0,-1.175291516E0,6.848868347E0
1.353481958E0,-4.915240813E0,3.815227814E0,-1.145877097E0,6.326815143E0
1.363405958E0,-4.628484002E0,3.465276927E0,-1.551123933E0,5.986400738E0
1.373328958E0,-4.233541422E0,3.435235103E0,-2.087068318E0,5.837770752E0
1.383252958E0,-3.679324197E0,3.479017884E0,-2.475696782E0,5.636494171E0
1.393175958E0,-3.068477272E0,3.346360056E0,-2.828714533E0,5.349327462E0
1.403099958E0,-2.611322072E0,2.966648011E0,-3.015754098E0,4.971395796E0
1.413022958E0,-2.135052908E0,2.575052962E0,-3.132512469E0,4.582792058E0
1.422946958E0,-1.629711388E0,2.331128760E0,-3.344087536E0,4.390107282E0
1.432869958E0,-1.006438546E0,2.197444161E0,-3.436434659E0,4.201281061E0
1.442793958E0,-2.814843768E-1,1.796224595E0,-3.734087172E0,4.153199159E0
1.452716958E0,1.173934377E0,8.193375850E-1,-4.236933100E0,4.472252016E0
1.462640958E0,3.376712075E0,-3.413736060E-1,-3.983990152E0,5.233631427E0
1.472563958E0,4.230797324E0,-1.179301536E0,-2.422495598E0,5.015863139E0
1.482486958E0,3.962872056E0,-1.199887828E0,-7.072780359E-1,4.200515201E0
1.492410958E0,3.451441830E0,-6.322942194E-1,3.000834927E-1,3.521689480E0
1.502333958E0,2.909409617E0,5.868616462E-2,9.365777671E-2,2.911508229E0
1.512257958E0,2.443679475E0,1.112830681E0,-5.616083989E-1,2.743239963E0
1.522180958E0,1.776178293E0,1.387016271E0,-1.028709421E0,2.477269977E0
1.532104958E0,8.758708048E-1,1.200346835E0,-1.535230616E0,2.136566225E0
1.542027958E0,-1.123560029E-1,1.944354156E0,-1.710055055E0,2.591799615E0
1.551951958E0,-1.089492981E0,3.405981483E0,-1.201384131E0,3.772403564E0
1.561874958E0,-1.362062693E0,2.883889737E0,-4.965030147E-1,3.227777879E0
1.571798958E0,-1.492493024E0,1.731746471E0,2.170088840E-1,2.296426381E0
1.581721958E0,-7.640960151E-1,1.408829893E0,5.455095524E-1,1.692992930E0
1.591645958E0,2.634626734E-1,5.666834897E-1,4.988455555E-1,7.996184378E-1
1.601568958E0,1.374504983E0,3.712461537E-1,4.950656229E-1,1.507374415E0
1.611492958E0,1.710131654E0,8.244647160E-1,5.860592620E-1,1.986896524E0
1.621415958E0,2.484205942E0,8.966158488E-1,4.228149413E-1,2.674690939E0
1.631339958E0,2.711594219E0,9.105559033E-1,-1.784353870E-1,2.865954369E0
1.641262958E0,2.256601903E0,4.461179960E-1,-1.540915279E0,2.768698849E0
1.651186958E0,5.786901623E-1,6.138664269E-1,1.253665109E0,1.511089177E0
1.661109958E0,3.439162678E-1,2.076766693E0,2.807397631E0,3.508948526E0
1.671033958E0,1.640438105E0,9.663322011E-1,3.856260650E-1,1.942560826E0
1.680956958E0,9.577224684E-1,2.397738487E-2,-1.473907650E-1,9.692942169E-1
1.690880958E0,5.342355359E-1,-1.628297532E-1,-7.034292524E-1,8.981836390E-1
1.700803958E0,5.033522969E-1,-9.909597963E-2,-1.072514568E0,1.188894884E0
1.710727958E0,4.984043831E-1,-5.650415915E-1,-1.259560418E0,1.467709568E0
1.720650958E0,4.020691663E-1,-7.770885283E-1,-1.734841548E0,1.942987749E0
1.730574958E0,9.873649281E-1,-4.139460307E-1,-1.469922187E0,1.818491698E0
1.740497958E0,1.080850797E0,-4.471167004E-1,-1.240409033E0,1.704924150E0
1.750421958E0,1.375814760E-1,-3.887410229E-1,-5.032195652E-1,6.505983217E-1
1.760344958E0,-4.800891495E-1,-5.432121813E-2,1.178085315E-1,4.973079894E-1
1.770268958E0,-1.045272244E0,3.548078763E-1,3.468998095E-1,1.157074833E0
1.780191958E0,-1.613843799E0,8.937238160E-1,3.102192025E-1,1.870687045E0
1.790115958E0,-1.773918344E0,1.278667949E0,7.373309702E-2,2.187970426E0
1.800038958E0,-2.044185423E0,1.098328124E0,-1.200120547E-1,2.323665553E0
1.809962958E0,-1.554120923E0,1.395774815E0,8.047815263E-3,2.088909751E0
1.819885958E0,-8.209180874E-1,1.662661033E0,-1.123606807E-1,1.857679504E0
1.829809958E0,-1.117644986E0,1.174521437E0,-3.603672628E-1,1.660871905E0
1.839732958E0,-4.238482904E-1,2.524213176E0,-5.564052540E-1,2.619329368E0
1.849656958E0,1.246287239E-1,2.646663228E0,-9.603092766E-1,2.818253443E0
1.859579958E0,3.140445971E-1,2.080849219E0,-1.418373865E0,2.537782871E0
1.869502958E0,3.568736976E-1,1.780965409E0,-1.485194091E0,2.346273239E0
1.879426958E0,3.519977045E-1,1.383817259E0,-1.071537936E0,1.785229996E0
1.889350958E0,3.623367512E-1,3.024390435E-1,-3.381105673E-1,5.805825110E-1
1.899273958E0,4.558372378E-2,-7.575629210E-1,-3.376284644E-1,8.306457941E-1
1.909196958E0,-4.289032084E-1,-1.563130898E0,-5.407214136E-1,1.708717593E0
1.919120958E0,-9.142361408E-1,-2.616125559E0,-5.575811291E-1,2.826806923E0
1.929043958E0,-2.756036566E0,-4.333321234E0,-5.852349508E-1,5.168743601E0
1.938967958E0,-4.754908406E0,-5.087943006E0,-4.191139461E-1,6.976530261E0
1.948890958E0,-4.779115879E0,-5.828176534E0,-4.576834962E-2,7.537219980E0
1.958814958E0,-4.071271833E0,-5.649637066E0,6.819471668E-1,6.997049753E0
1.968737958E0,-3.950109338E0,-4.733492394E0,1.060418213E0,6.255701465E0
1.978661958E0,-4.039380534E0,-3.885016379E0,1.065867307E0,5.704911961E0
1.988584958E0,-4.056928613E0,-3.311823184E0,7.681569064E-1,5.293100000E0
1.998508958E0,-3.468420390E0,-2.862334269E0,4.001091065E-1,4.514751905E0
2.008431958E0,-2.311635312E0,-2.047087396E0,-2.323654995E-1,3.096484838E0
2.018355958E0,-7.142292058E-1,-1.018616542E0,-7.617951357E-1,1.458778546E0
2.028278958E0,8.405717486E-1,-1.724536854E-1,-9.047162160E-1,1.246921236E0
2.038202958E0,2.106807348E0,3.033143717E-1,-1.251110022E0,2.468990299E0
2.048125958E0,3.378343449E0,4.365928817E-1,-2.367259290E0,4.148220624E0
2.058049958E0,3.740336384E0,3.759046304E-1,-2.609010082E0,4.575844639E0
2.067972958E0,2.872517779E0,2.674539828E-1,-1.122850762E0,3.095752551E0
2.077896958E0,2.458147241E0,-8.636922240E-3,1.413950300E-1,2.462225621E0
2.087819958E0,2.663406145E0,-1.559271151E-1,6.303602529E-1,2.741422916E0
2.097743958E0,2.995556645E0,1.155936062E-2,4.556922269E-1,3.030041029E0
2.107666958E0,3.127915388E0,1.650160271E-1,8.254974805E-2,3.133352745E0
2.117590958E0,3.052534838E0,3.741498810E-1,6.310914472E-2,3.076026631E0
2.127514542E0,2.729119493E0,1.137400389E0,5.785691249E-1,3.012725524E0
2.137438542E0,2.756594390E0,1.945962725E0,1.182912630E0,3.575593077E0
2.147361542E0,2.209679752E0,2.700495619E0,1.221679962E0,3.697007320E0
2.157285542E0,1.670658855E0,3.157194736E0,1.080496748E0,3.731816291E0
2.167208542E0,1.693613269E0,3.737926161E0,1.296883196E0,4.303756954E0
2.177132542E0,1.913507169E0,3.962011346E0,1.603276419E0,4.682898554E0
2.187055542E0,2.379484649E0,4.132779279E0,1.597411369E0,5.029267824E0
2.196979542E0,2.958152592E0,4.413985913E0,1.415975776E0,5.498993162E0
2.206902542E0,3.230871115E0,4.236943917E0,6.764000595E-1,5.371009119E0
2.216826542E0,2.899766974E0,1.988365563E0,-8.780681884E-1,3.623982596E0
2.226749542E0,2.412016802E0,1.346119090E0,-2.083285754E0,3.459760280E0
2.236673542E0,2.095171389E0,2.146606421E0,-1.983934251E0,3.596339443E0
2.246596542E0,2.026895791E0,2.534824119E0,-1.814461476E0,3.718320899E0
2.256519542E0,2.086664275E0,3.087874825E0,-9.363804236E-1,3.842648439E0
2.266443542E0,1.946324960E0,3.645467649E0,3.470439434E-1,4.147053740E0
2.276366542E0,1.687182502E0,3.337837447E0,1.426547542E0,4.002846675E0
2.286290542E0,1.387756528E0,2.295427415E0,1.803870414E0,3.232460931E0
2.296213542E0,1.242593552E0,1.320206569E0,1.995211191E0,2.695895365E0
2.306137542E0,1.323826873E0,2.813797116E-1,1.959713037E0,2.381631231E0
2.316060542E0,1.521798100E0,-6.254480070E-1,1.396939288E0,2.158354475E0
2.325984542E0,1.756353601E0,-6.642565620E-1,1.331824695E0,2.302123317E0
2.335907542E0,1.729200593E0,-6.557295674E-1,1.110476300E0,2.157144772E0
2.345831542E0,1.770918284E0,-4.181987107E-1,1.003720467E0,2.078099254E0
2.355754542E0,1.685559899E0,1.698089898E-1,4.750336468E-1,1.759432929E0
2.365678542E0,1.513940173E0,6.423499686E-1,3.016951315E-1,1.672019223E0
2.375601542E0,1.481117413E0,1.368435574E0,-1.373057798E-2,2.016559753E0
2.385525542E0,1.354696225E0,1.642324417E0,-8.726877268E-1,2.300872709E0
2.395448542E0,1.107313979E0,1.562728025E0,-1.861248410E0,2.670675715E0
2.405372542E0,7.142566878E-1,1.726501518E0,-2.560839550E0,3.169995160E0
2.415295542E0,3.213995174E-2,1.584747469E0,-3.301570677E0,3.662352584E0
2.425219542E0,-9.354784175E-1,7.650122738E-1,-4.126090064E0,4.299416573E0
2.435142542E0,-1.957503228E0,-3.565503466E-1,-4.064952747E0,4.525791408E0
2.445066542E0,-3.011130997E0,-2.200826483E0,-2.953899912E0,4.757738094E0
2.454989542E0,-3.292639932E0,-5.973248878E0,-1.216957605E0,6.928359523E0
2.464913542E0,-3.247544158E0,-1.025010823E1,-8.353566170E-1,1.078466886E1
2.474836542E0,-3.815690621E0,-1.329768638E1,-3.526838168E0,1.427678344E1
2.484760542E0,-4.648159298E0,-1.214924294E1,-5.338870418E0,1.406104641E1
2.494683542E0,-2.899747093E0,-5.155483024E0,-4.735213230E0,7.576924359E0
2.504607542E0,-3.953966162E-1,1.110980330E0,-3.057120810E0,3.276675666E0
2.514530542E0,6.894139150E-1,4.103553725E0,-1.033841522E0,4.287571925E0
2.524454542E0,2.051386415E0,4.941089600E0,3.194568530E-1,5.359534060E0
2.534377542E0,3.552316533E0,3.532961372E0,9.794811273E-1,5.104914503E0
2.544301542E0,4.389893045E0,9.765826625E-1,1.849093072E0,4.862511680E0
2.554224542E0,4.412632867E0,-1.965797650E0,3.222511643E0,5.806915748E0
2.564147542E0,3.287138579E0,-4.012992049E0,5.126022413E0,7.292838336E0
2.574071542E0,2.476485571E0,-5.101716707E0,6.038909016E0,8.284257133E0
2.583995542E0,2.648929608E0,-6.295574301E0,4.179284524E0,8.007340569E0
2.593918542E0,1.818543710E0,-7.681483110E0,-2.083841239E0,8.164231642E0
2.603841542E0,-4.412715313E-1,-6.849790943E0,-5.928965575E0,9.070115176E0
2.613765542E0,-9.635548467E-1,-3.083273066E0,-3.433681498E0,4.714358850E0
2.623688542E0,-7.806240472E-1,2.491486895E-1,-1.703461735E0,1.890299144E0
2.633612542E0,-2.396858481E-1,2.977930799E0,-1.218840408E-1,2.990046298E0
2.643535542E0,1.694617821E0,4.947166611E0,1.929267170E0,5.573890818E0
2.653459542E0,3.370603489E0,4.999030244E0,3.549009055E0,6.996194433E0
2.663382542E0,4.007616704E0,3.599562328E0,3.823280307E0,6.605703059E0
2.673306542E0,3.591850727E0,1.912491508E0,3.211032974E0,5.183603783E0
2.683229542E0,2.854339955E0,3.745036376E-1,2.772511096E0,3.996789628E0
2.693153542E0,2.439735528E0,-7.439950418E-1,3.062081587E0,3.985245503E0
2.703076542E0,1.858342490E0,-1.063863466E0,3.339544834E0,3.967089863E0
2.713000542E0,3.009698575E-1,8.163110662E-1,3.431795186E0,3.540362243E0
2.722923542E0,-3.693682035E0,7.408600572E0,3.180190666E0,8.868160016E0
2.732847542E0,-2.273617301E0,4.409460168E0,3.231518694E0,5.920759045E0
2.742770542E0,1.341004823E0,-2.852616196E0,2.682228917E0,4.138848277E0
2.752694542E0,-2.545634670E-1,-7.257873970E-1,1.839379678E0,1.993711991E0
2.762617542E0,-9.118659720E-1,-4.756943822E-1,6.014222364E-1,1.191424946E0
2.772541542E0,-6.589110374E-1,-2.801884584E0,-3.027421632E0,4.177320040E0
2.782464542E0,-1.205702007E0,-2.504095246E0,-6.502323661E0,7.071380581E0
2.792388542E0,-8.830608335E-1,-1.833833594E0,-6.316659361E0,6.636484579E0
2.802311542E0,3.948314462E-1,-1.631959058E0,-4.224856553E0,4.546272664E0
2.812235542E0,1.467731236E0,-8.977733052E-1,-1.927111301E0,2.583406638E0
2.822158542E0,2.213399166E0,-5.283959216E-1,-1.816263588E-1,2.282832944E0
2.832082542E0,2.347960847E0,-2.616611463E-1,8.729191303E-1,2.518605667E0
2.842005542E0,2.045548409E0,-5.569320881E-1,1.530037265E0,2.614470439E0
2.851928542E0,1.720639685E0,-9.683591384E-1,1.764072072E0,2.647691564E0
2.861852542E0,1.629977144E0,-1.099376530E0,1.526338317E0,2.489008418E0
2.871775542E0,1.561902690E0,-1.101210802E0,9.757636137E-1,2.145767898E0
2.881699542E0,1.202533401E0,-8.038114733E-1,2.391670538E-1,1.466083335E0
2.891622542E0,5.764594495E-1,-2.650431758E-1,-4.436093943E-1,7.741722526E-1
2.901546542E0,-2.118621647E-2,4.246376646E-1,-3.129324567E-1,5.279135577E-1
2.911469542E0,-8.448562959E-1,1.343075030E0,-1.629461128E-1,1.595049884E0
2.921393542E0,-1.404460562E0,1.575645694E0,-2.581091090E-1,2.126449890E0
2.931316542E0,-1.521715946E0,1.296030672E0,-4.770225772E-1,2.054961183E0
2.941240542E0,-1.368898381E0,1.093074986E0,-8.565521890E-1,1.949968552E0
2.951163542E0,-1.196806638E0,8.844779062E-1,-1.453734756E0,2.080382665E0
2.961087542E0,-1.228520181E0,7.865551704E-1,-1.848226661E0,2.354542984E0
2.971010542E0,-1.559889494E0,7.590966457E-1,-1.824693372E0,2.517734866E0
2.980934542E0,-2.249423862E0,5.031207472E-1,-1.272709783E0,2.633026469E0
2.990857542E0,-2.706962639E0,-3.432081699E-2,-6.058770838E-1,2.774150625E0
3.000781542E0,-2.670467243E0,-2.440241897E-1,1.491083845E-2,2.681634843E0
3.010704542E0,-2.349800966E0,-1.651703936E-1,3.203050648E-1,2.377275999E0
3.020628542E0,-2.023707304E0,-9.776310682E-2,1.598944509E-1,2.032366875E0
3.030551542E0,-1.370499348E0,-1.223980111E-1,-1.018457790E-1,1.379718196E0
3.040475542E0,-1.115549051E0,-1.725887561E-1,-5.520201346E-1,1.256567863E0
3.050398542E0,-9.925988439E-1,-2.286518598E-1,-1.041768300E0,1.456988445E0
3.060322542E0,-1.049853829E0,-1.071338546E-1,-1.427224795E0,1.775004604E0
3.070245542E0,-8.502589039E-1,-1.681132972E-1,-1.565797521E0,1.789671523E0
3.080169542E0,-3.729073477E-1,-4.473318779E-1,-1.511622775E0,1.619928737E0
3.090092542E0,-2.956613166E-1,-7.988875329E-1,-1.416506264E0,1.652914669E0
3.100016542E0,6.588828977E-1,-4.636900485E-1,-8.032391770E-1,1.137685506E0
3.109939542E0,7.581061274E-1,-1.434479874E-1,-5.397675866E-1,9.416216188E-1
3.119862542E0,-4.143538740E-1,-2.425582927E-1,-8.821986616E-1,1.004389435E0
3.129786042E0,-1.628103112E0,-6.452560347E-1,-1.634074727E0,2.395261010E0
3.139709042E0,-2.233045372E0,-1.327716733E0,-2.744990298E0,3.779456984E0
3.149633042E0,-2.777378026E0,-1.731998486E0,-3.700003459E0,4.940007394E0
3.159556042E0,-3.416336609E0,-1.868026941E0,-4.066627974E0,5.630128201E0
3.169480042E0,-3.830778484E0,-2.097046006E0,-4.206274686E0,6.063432401E0
3.179403042E0,-4.100541240E0,-2.429247962E0,-4.372631188E0,6.468043570E0
3.189327042E0,-4.371225225E0,-2.803759786E0,-4.406859619E0,6.810953722E0
3.199250042E0,-4.741218612E0,-3.556653121E0,-4.441400583E0,7.406414415E0
3.209174042E0,-5.213630660E0,-4.681334646E0,-5.069590350E0,8.648559709E0
3.219097042E0,-5.812815313E0,-5.809653139E0,-7.001149043E0,1.079615577E1
3.229021042E0,-6.315624404E0,-6.469597964E0,-9.756555279E0,1.330162322E1
3.238944042E0,-6.060486996E0,-6.228322551E0,-1.080025872E1,1.386243459E1
3.248868042E0,-4.639023901E0,-5.107711857E0,-8.159142741E0,1.068554507E1
3.258791042E0,-3.424196437E0,-3.578236948E0,-3.466828194E0,6.045477534E0
3.268715042E0,-2.674842422E0,-2.503038654E0,-7.407884288E-1,3.737479362E0
3.278638042E0,-1.546803718E0,-2.018168237E0,1.558781154E0,2.982516296E0
3.288562042E0,-8.092277491E-1,-2.375737753E0,4.685923541E0,5.315718093E0
3.298485042E0,-6.388046555E-3,-3.166799372E0,7.816281896E0,8.433440682E0
3.308409042E0,7.441979402E-1,-3.596082065E0,1.002676096E1,1.067808841E1
3.318332042E0,1.250618271E0,-3.737432656E0,1.054598786E1,1.125834397E1
3.328256042E0,1.718894876E0,-3.156624632E0,8.310893190E0,9.054823260E0
3.338179042E0,1.384587045E0,-1.885066313E0,3.918792236E0,4.563714373E0
3.348103042E0,6.539587381E-1,-8.481368762E-1,9.292979836E-2,1.075004251E0
3.358026042E0,3.290184394E-1,-6.118894833E-1,-1.389166146E0,1.553204576E0
3.367949042E0,3.318593091E-1,-7.838771456E-1,-9.226904838E-1,1.255369153E0
3.377873042E0,-3.560018778E-1,-7.007186294E-1,6.301135004E-1,1.007366347E0
3.387796042E0,-1.720877374E0,-3.218979925E-1,2.553254250E0,3.095826952E0
3.397720042E0,-2.911018186E0,2.038251668E-1,3.789375519E0,4.782775178E0
3.407643042E0,-3.007427955E0,4.831940210E-1,4.313412342E0,5.280494806E0
3.417567042E0,-1.817061733E0,3.082938606E-1,4.742581014E0,5.088107027E0
3.427490042E0,-1.847918586E-1,-7.390295863E-2,5.121060466E0,5.124926338E0
3.437414042E0,1.066973307E0,-2.540790617E-1,5.329000318E0,5.440701480E0
3.447337042E0,1.528068069E0,-1.521714485E-1,5.516943862E0,5.726675978E0
3.457261042E0,1.573566424E0,1.286176944E-1,5.534248112E0,5.755046131E0
3.467184042E0,1.464983044E0,4.592923576E-1,5.187276675E0,5.409710167E0
3.477108042E0,1.564216726E0,6.842785978E-1,4.386848985E0,4.707383050E0
3.487031042E0,1.644177838E0,8.263331938E-1,3.574834745E0,4.020645566E0
3.496955042E0,1.837483718E0,1.052569569E0,3.106995513E0,3.760009339E0
3.506878042E0,2.280113411E0,1.292475564E0,3.019386680E0,3.998262895E0
3.516802042E0,2.514583105E0,1.393399676E0,3.236971515E0,4.329281169E0
3.526725042E0,2.609347759E0,1.581943145E0,3.632773343E0,4.744289410E0
3.536649042E0,2.464586195E0,1.715971853E0,4.039654183E0,5.033641866E0
3.546572042E0,2.081671045E0,1.714542793E0,4.099855946E0,4.907324129E0
3.556496042E0,1.462949675E0,1.709769711E0,3.681886154E0,4.315068930E0
3.566419042E0,7.391498197E-1,1.933584169E0,3.070173257E0,3.702844045E0
3.576343042E0,3.969032244E-1,2.575688555E0,2.255153256E0,3.446363287E0
3.586266042E0,3.637173519E-1,3.442987926E0,1.606062032E0,3.816528714E0
3.596189042E0,6.056268961E-1,4.177565442E0,1.396638156E0,4.446283291E0
3.606113042E0,7.890011338E-1,4.548258449E0,1.426047312E0,4.831437534E0
3.616036042E0,7.586490414E-1,4.259163337E0,1.704489090E0,4.649871370E0
3.625960042E0,6.014057180E-1,3.732045032E0,2.054649600E0,4.302491596E0
3.635883042E0,7.788518292E-1,3.161853797E0,2.220776305E0,3.941545003E0
3.645807042E0,1.297430495E0,2.572529889E0,2.158538542E0,3.600072854E0
3.655730042E0,1.710278419E0,2.140691963E0,1.711505749E0,3.230613917E0
3.665654042E0,1.657417250E0,1.773950504E0,1.172160624E0,2.695902977E0
3.675577042E0,1.184140911E0,1.327562367E0,4.926907763E-1,1.845902418E0
3.685501042E0,4.537470775E-1,8.873681849E-1,-7.830152661E-2,9.997198783E-1
3.695424042E0,1.000930030E-2,4.444170409E-1,-1.220942775E0,1.299349049E0
3.705348042E0,2.205792304E-1,-2.143179953E-1,-2.795629525E0,2.812495661E0
3.715271042E0,2.851543817E-1,-1.290791566E0,-4.868737907E0,5.045003935E0
3.725195042E0,-4.274524776E-1,-2.611185831E0,-6.258080785E0,6.794452309E0
3.735118042E0,-9.404141253E-1,-4.009087279E0,-5.863498979E0,7.165038716E0
3.745042042E0,-6.047469998E-1,-5.354295373E0,-4.636902239E0,7.108801604E0
3.754965042E0,4.582866365E-1,-6.078172485E0,-4.100578662E0,7.346356427E0
3.764889042E0,1.293961927E0,-5.419588307E0,-4.475430794E0,7.146730418E0
3.774812042E0,1.116725219E0,-2.635251802E0,-4.213905888E0,5.093979790E0
3.784736042E0,1.036111776E0,4.678573591E-1,-3.382277455E0,3.568223494E0
3.794659042E0,1.660650322E0,2.297463416E0,-2.474096691E0,3.762612400E0
3.804582042E0,2.483937263E0,2.848545365E0,-1.303754551E0,3.997990864E0
3.814506042E0,3.147696811E0,2.800803434E0,1.719923401E-1,4.216879943E0
3.824429042E0,3.747932794E0,2.425099363E0,1.546350120E0,4.724331258E0
3.834353042E0,4.271978972E0,9.241822547E-1,2.385582271E0,4.979449764E0
3.844276042E0,4.011728174E0,-2.041039036E0,3.246803316E0,5.549913068E0
3.854200042E0,2.522818908E0,-5.090159100E0,4.443514352E0,7.212430568E0
3.864123042E0,4.367247364E-1,-6.994428254E0,5.600546182E0,8.971001763E0
3.874047042E0,-2.305430540E0,-6.715144184E0,5.298249811E0,8.858872527E0
3.883970042E0,-4.474279477E0,-4.682801127E0,3.373347588E0,7.302552785E0
3.893894042E0,-5.125235378E0,-3.442856948E0,1.335504055E-1,6.175689221E0
3.903817042E0,-5.753630966E0,-3.155704281E0,-4.719960183E0,8.083363343E0
3.913741042E0,-6.721122378E0,-2.248118178E0,-8.276185287E0,1.089599763E1
3.923664042E0,-6.753166873E0,-3.253928733E-1,-7.513742280E0,1.010779236E1
3.933588042E0,-5.472144250E0,1.770419955E0,-3.934182107E0,6.968252175E0
3.943511042E0,-3.190727641E0,3.351119982E0,1.491255023E0,4.861541891E0
3.953435042E0,-4.675989121E-1,3.775341325E0,8.457071242E0,9.273289862E0
3.963358042E0,1.377854561E0,2.573408141E0,1.359668726E1,1.390650269E1
3.973282042E0,2.751111749E0,1.492804096E0,1.543200429E1,1.574623245E1
3.983205042E0,3.188001084E0,1.447887540E0,1.475253211E1,1.516235248E1
3.993128042E0,2.576876417E0,1.772325563E0,1.157804599E1,1.199302209E1
4.003052042E0,2.296631065E0,1.273062224E0,7.445998778E0,7.895448023E0
4.012975042E0,1.540672327E0,-3.289450568E-1,1.892568436E0,2.462456367E0
4.022899042E0,-1.396934026E0,-2.043936331E0,-6.220929916E0,6.695451398E0
4.032822042E0,-3.736337765E0,-2.527592282E0,-1.210931231E1,1.292224389E1
4.042746042E0,-4.071315687E0,-2.039678974E0,-1.063105667E1,1.156526124E1
4.052669042E0,-2.880640439E0,-1.808491176E0,-5.792366431E0,6.717160006E0
4.062593042E0,-9.153961553E-1,-1.296014884E0,-1.345108691E0,2.080125499E0
4.072516042E0,9.017868340E-1,-8.827173096E-1,2.756565739E0,3.031676766E0
4.082440042E0,2.162936233E0,-4.884641165E-1,4.515428088E0,5.030505060E0
4.092363042E0,3.379532188E0,7.901576400E-1,3.654053700E0,5.039612619E0
4.102287042E0,4.912515426E0,2.624134490E0,2.014883856E0,5.922722903E0
4.112210042E0,6.376284004E0,4.041151071E0,1.033787727E-1,7.549740846E0
4.122134042E0,7.058309669E0,3.904584671E0,-1.253571115E0,8.163146292E0
4.132057667E0,5.453878718E0,1.907653522E0,-1.696419933E0,6.021775122E0
4.141981667E0,2.985363779E0,6.244235748E-1,-1.634265200E0,3.460220287E0
4.151904667E0,1.565078313E0,5.041264683E-1,-1.298454927E0,2.095136945E0
4.161828667E0,7.073832858E-1,6.238534713E-1,-3.944800651E-1,1.022349641E0
4.171751667E0,2.500190476E-1,7.599678808E-1,8.015801758E-1,1.132515555E0
4.181675667E0,-1.133754284E-1,8.094838572E-1,1.679520310E0,1.867861498E0
4.191598667E0,-4.361259815E-1,8.519632941E-1,2.042039495E0,2.255210106E0
4.201521667E0,-6.434141618E-1,1.056961412E0,1.935635372E0,2.297353587E0
4.211445667E0,-7.749417230E-1,1.336977553E0,1.602719471E0,2.226376733E0
4.221368667E0,-9.260141873E-1,1.449149369E0,1.193076991E0,2.093076414E0
4.231292667E0,-1.062899845E0,1.276024423E0,8.314798399E-1,1.857243423E0
4.241215667E0,-1.150467746E0,8.965950912E-1,4.780460958E-1,1.534922429E0
4.251139667E0,-1.093065630E0,5.428689498E-1,1.934550568E-1,1.235687674E0
4.261062667E0,-9.053451571E-1,2.306516075E-1,2.751458488E-2,9.346694977E-1
4.270986667E0,-6.766368717E-1,-1.300794983E-1,5.248745821E-2,6.910232017E-1
4.280909667E0,-4.885719610E-1,-3.931012917E-1,1.591928581E-1,6.469726058E-1
4.290833667E0,-4.752037643E-1,-8.149211830E-1,2.792584149E-1,9.838192996E-1
4.300756667E0,-5.783184987E-1,-1.334097215E0,4.146477697E-1,1.512018663E0
4.310680667E0,-8.096034327E-1,-1.758201029E0,5.645602926E-1,2.016297820E0
4.320603667E0,-1.094942002E0,-2.067845011E0,7.232111138E-1,2.449064167E0
4.330527667E0,-1.454053136E0,-2.123207619E0,7.433962139E-1,2.678603936E0
4.340450667E0,-1.859747576E0,-1.691929271E0,5.623255599E-1,2.576333779E0
4.350374667E0,-2.082895744E0,-6.500121599E-1,1.983497610E-1,2.190961688E0
4.360297667E0,-2.024768866E0,2.258633226E-1,-2.079288159E-1,2.047910543E0
4.370221667E0,-1.889965256E0,3.703889519E-1,-4.637411385E-1,1.980962516E0
4.380144667E0,-1.897442822E0,-7.127463520E-2,-5.349535739E-1,1.972699841E0
4.390068667E0,-2.029405708E0,-6.827600759E-1,-5.751064038E-1,2.217069287E0
4.399991667E0,-2.292085878E0,-1.106101413E0,-5.551169662E-1,2.604855630E0
4.409914667E0,-2.605690033E0,-1.223049234E0,-4.680127488E-1,2.916248603E0
4.419838667E0,-2.915761448E0,-1.226820688E0,-3.994865973E-1,3.188470380E0
4.429761667E0,-3.201114927E0,-1.242956665E0,-4.029773851E-1,3.457523509E0
4.439685667E0,-3.414481288E0,-1.215703377E0,-4.417384315E-1,3.651266905E0
4.449608667E0,-3.559182041E0,-1.110631835E0,-5.747292584E-1,3.772478442E0
4.459532667E0,-3.628060488E0,-1.102053385E0,-8.289607863E-1,3.881303976E0
4.469455667E0,-3.574459062E0,-1.271984582E0,-1.291752995E0,4.007908202E0
4.479379667E0,-3.504952332E0,-1.665972311E0,-1.925449523E0,4.332148481E0
4.489302667E0,-3.570543181E0,-2.421705639E0,-2.448273779E0,4.960592838E0
4.499226667E0,-3.784758266E0,-3.531602479E0,-2.572475510E0,5.780505293E0
4.509149667E0,-4.017109074E0,-4.563658846E0,-2.366665798E0,6.524205268E0
4.519073667E0,-4.153795341E0,-4.804893914E0,-2.496351779E0,6.824426237E0
4.528996667E0,-4.291274491E0,-4.432796406E0,-3.662838557E0,7.175033590E0
4.538920667E0,-4.252314785E0,-4.242770083E0,-5.306873869E0,8.015372061E0
4.548843667E0,-3.854080808E0,-4.508490951E0,-6.347055527E0,8.687090617E0
4.558767667E0,-3.076517193E0,-4.807426928E0,-6.272628073E0,8.480694232E0
4.568690667E0,-2.061402257E0,-4.712022003E0,-5.716625108E0,7.689755083E0
4.578613667E0,-8.849436370E-1,-4.200537983E0,-5.618423460E0,7.070666642E0
4.588537667E0,4.692642722E-1,-3.145514338E0,-5.192494730E0,6.089045157E0
4.598460667E0,1.245638490E0,-1.959891377E0,-4.152746351E0,4.757950369E0
4.608384667E0,1.816024144E0,-9.451766825E-1,-2.247007792E0,3.039793853E0
4.618307667E0,1.693902999E0,-8.821080297E-1,4.997031227E-1,1.974113765E0
4.628231667E0,1.427794460E0,-7.581523204E-1,3.109016018E0,3.504193568E0
4.638154667E0,1.182327251E0,-2.959743619E-1,5.088415461E0,5.232348464E0
4.648078667E0,4.735221050E-1,2.242307800E-1,6.500375369E0,6.521455555E0
4.658001667E0,-7.254611224E-1,3.453447425E-1,7.205198743E0,7.249858327E0
4.667925667E0,-1.656919360E0,1.368955976E-1,6.386827118E0,6.599672932E0
4.677848667E0,-2.026880880E0,-6.336843950E-1,4.427295345E0,4.910269452E0
4.687772667E0,-1.704214856E0,-9.192056894E-1,2.334498218E0,3.033013238E0
4.697695667E0,-1.302564643E0,-5.643013340E-1,1.158703111E0,1.832403761E0
4.707619667E0,-1.034995470E0,-2.866264182E-1,1.415225286E0,1.776578998E0
4.717542667E0,-1.038114082E0,-1.250228262E-1,2.360004065E0,2.581265337E0
4.727466667E0,-1.339748841E0,-3.156385481E-2,3.141110508E0,3.415040037E0
4.737389667E0,-1.394572628E0,1.079536343E-1,3.140406210E0,3.437824598E0
4.747313667E0,-1.204177930E0,9.493890166E-2,2.761547274E0,3.014166756E0
4.757236667E0,-7.503752312E-1,1.384386778E-2,2.762818459E0,2.862939133E0
4.767159667E0,-3.097255513E-1,3.173459351E-2,3.381791259E0,3.396093215E0
4.777083667E0,3.275662833E-1,3.601317662E-1,3.796022049E0,3.827110915E0
4.787006667E0,9.721042800E-1,8.098598331E-1,4.010380683E0,4.205236367E0
4.796930667E0,1.320943903E0,1.100735423E0,3.971055526E0,4.327330963E0
4.806853667E0,1.317566844E0,1.195911137E0,3.502105323E0,3.928221929E0
4.816777667E0,1.192863056E0,1.216227872E0,2.880911750E0,3.346906784E0
4.826700667E0,1.033095563E0,1.092637029E0,2.386519434E0,2.820747619E0
4.836624667E0,9.295467096E-1,9.317432892E-1,2.262642954E0,2.617585869E0
4.846547667E0,7.200418498E-1,8.743563759E-1,2.374285012E0,2.630625146E0
4.856471667E0,6.692848751E-1,8.462482256E-1,2.597064221E0,2.812262589E0
4.866394667E0,1.299443984E0,9.686994463E-1,2.517033673E0,2.993725404E0
4.876318667E0,2.171751495E0,1.382931406E0,2.470514394E0,3.568255204E0
4.886241667E0,2.749235962E0,2.021113479E0,2.686560827E0,4.342903078E0
4.896165667E0,3.028880804E0,2.502085558E0,2.917467080E0,4.893481913E0
4.906088667E0,3.089433108E0,2.547176946E0,3.113515743E0,5.072148224E0
4.916012667E0,2.870248475E0,2.361751798E0,3.029865476E0,4.795443949E0
4.925935667E0,2.291699231E0,2.051784464E0,2.590800683E0,4.021685347E0
4.935858667E0,1.647018854E0,1.793488975E0,1.946404774E0,3.117333052E0
4.945782667E0,6.321038926E-1,1.451994624E0,1.742444537E0,2.354560826E0
4.955705667E0,-2.014753170E-1,1.109009818E0,1.649602154E0,1.997919505E0
4.965629667E0,-9.246484239E-1,8.270687735E-1,1.498423563E0,1.945325330E0
4.975552667E0,-1.688227107E0,3.494214213E-1,1.507152871E0,2.289916127E0
4.985476667E0,-2.117780818E0,-2.459081626E-1,1.489339329E0,2.600691841E0
4.995399667E0,-2.039078465E0,-7.819762158E-1,1.090405439E0,2.440965344E0
5.005323667E0,-1.709761963E0,-1.097050508E0,6.344573969E-1,2.128225076E0
5.015246667E0,-1.273641098E0,-1.091116753E0,5.015510622E-1,1.750500181E0
5.025170667E0,-8.276057672E-1,-7.789941359E-1,3.886623779E-1,1.201175097E0
5.035093667E0,-4.648562756E-1,-4.912409592E-1,5.397564769E-2,6.784706386E-1
5.045017667E0,-1.326619942E-2,-2.914907169E-1,-3.279109767E-1,4.389401312E-1
5.054940667E0,1.899034945E-1,-3.865857393E-1,-1.180638502E0,1.256749435E0
5.064864667E0,4.942315176E-1,-9.290974241E-1,-1.918590739E0,2.188258952E0
5.074787667E0,4.627138193E-1,-1.795634319E0,-2.416869699E0,3.046254393E0
5.084710667E0,-1.495670621E-1,-2.741478753E0,-3.165600401E0,4.190358214E0
5.094634667E0,-8.253844830E-1,-3.294189152E0,-3.942765528E0,5.203685398E0
5.104557667E0,-1.497430998E0,-3.066492727E0,-4.388315467E0,5.559045770E0
5.114481667E0,-1.964807716E0,-2.210246347E0,-4.172971870E0,5.114621443E0
5.124403667E0,-2.116051211E0,-9.830011511E-1,-3.387307230E0,4.113127066E0
5.134327667E0,-2.139027114E0,2.443358463E-1,-2.243150384E0,3.109157546E0
5.144250667E0,-2.007842346E0,1.502582395E0,-9.388663673E-1,2.677807834E0
5.154174667E0,-1.567030991E0,2.665623409E0,5.108130518E-1,3.134017272E0
5.164097667E0,-8.877219415E-1,3.239584928E0,2.009063537E0,3.913987359E0
5.174021667E0,3.612424448E-2,3.120222791E0,3.578115618E0,4.747631684E0
5.183944667E0,8.910387015E-1,2.607008581E0,5.118965993E0,5.813282768E0
5.193868667E0,1.745254416E0,2.015450451E0,6.319923277E0,6.859255333E0
5.203791667E0,2.823348835E0,9.388909256E-1,7.290886180E0,7.874632443E0
5.213715667E0,3.808126078E0,-9.442019516E-1,7.766306913E0,8.701084106E0
5.223638667E0,4.281089226E0,-3.368126024E0,7.948526618E0,9.635926176E0
5.233562667E0,4.349574739E0,-5.733696054E0,7.251037406E0,1.021624267E1
5.243485667E0,5.081078374E0,-6.697868586E0,4.967569885E0,9.765016723E0
5.253408667E0,5.586963100E0,-6.600706573E0,1.019306221E0,8.707609839E0
5.263332667E0,3.706290386E0,-6.107481068E0,-2.882342856E0,7.703623418E0
5.273255667E0,-2.062746020E-1,-4.474282401E0,-4.401453283E0,6.279692924E0
5.283179667E0,-3.056961181E0,-1.775762556E0,-3.191742717E0,4.762936687E0
5.293102667E0,-3.992961535E0,1.572787575E0,-1.132741327E0,4.438525148E0
5.303026667E0,-3.135525247E0,4.249146472E0,5.457687302E-1,5.308919647E0
5.312949667E0,-7.968272665E-1,5.543639910E0,2.266965508E0,6.042020338E0
5.322873667E0,2.098224805E0,5.512083072E0,4.233774726E0,7.260196661E0
5.332796667E0,4.378700013E0,4.761132182E0,5.497584901E0,8.489100848E0
5.342720667E0,5.005275655E0,3.585482233E0,5.311200224E0,8.131255441E0
5.352643667E0,4.592373645E0,2.780029446E0,4.572059541E0,7.051396164E0
5.362567667E0,3.983206041E0,2.404635862E0,4.222668817E0,6.283242470E0
5.372490667E0,3.165363589E0,2.067336304E0,3.705559484E0,5.293824433E0
5.382414667E0,2.311546435E0,1.395809898E0,2.915111822E0,3.973588948E0
5.392337667E0,1.399028206E0,5.028085059E-1,2.155811108E0,2.618705377E0
5.402260667E0,6.133907560E-1,-4.451678234E-1,1.694281021E0,1.856074026E0
5.412184667E0,-2.658647096E-1,-1.263807251E0,1.565404880E0,2.029380509E0
5.422107667E0,-1.217891113E0,-2.250706156E0,1.792623003E0,3.124489429E0
5.432031667E0,-2.086093587E0,-3.677182361E0,2.097589213E0,4.719463643E0
5.441954667E0,-2.981687342E0,-5.052590155E0,1.858056854E0,6.153982609E0
5.451878667E0,-3.703292811E0,-5.159049826E0,1.256592371E0,6.473731315E0
5.461801667E0,-4.258809873E0,-4.367395883E0,3.240187411E-1,6.108731167E0
5.471725667E0,-4.721643304E0,-3.093058966E0,-7.598866045E-1,5.695468103E0
5.481648667E0,-4.692706311E0,-1.444533577E0,-1.185237629E0,5.051035341E0
5.491572667E0,-4.355597956E0,-3.528502285E-2,-4.845481630E-1,4.382609441E0
5.501495667E0,-3.598633790E0,8.855432689E-1,5.177043243E-1,3.741974052E0
5.511419667E0,-2.591062931E0,9.619570220E-1,9.460642898E-1,2.921302118E0
5.521342667E0,-1.673990160E0,7.992541534E-1,1.226286253E0,2.223696974E0
5.531266667E0,-9.462987632E-1,5.243093026E-1,1.641109951E0,1.965610201E0
5.541189667E0,-5.005030949E-1,3.158087021E-1,2.142019866E0,2.222270818E0
5.551112667E0,-2.032575118E-1,2.520237654E-1,2.556020275E0,2.576445078E0
5.561036667E0,8.454224160E-2,2.988055837E-1,2.835570978E0,2.852524310E0
5.570959667E0,4.265039496E-1,2.915901196E-1,2.997763385E0,3.041959192E0
5.580883667E0,7.582594706E-1,1.519475001E-1,2.990193579E0,3.088576227E0
5.590806667E0,1.027717148E0,-9.835718393E-2,2.706708870E0,2.896920706E0
5.600730667E0,1.236376208E0,-2.639503312E-1,2.061987855E0,2.418695893E0
5.610653667E0,1.363023098E0,-2.055623746E-1,1.258796772E0,1.866723646E0
5.620577667E0,1.303750604E0,-3.536396027E-2,5.313704002E-1,1.408321962E0
5.630500667E0,9.516577363E-1,1.143306077E-2,2.612886786E-2,9.520850170E-1
5.640424667E0,2.972655733E-1,-3.386707306E-2,-1.695388484E-1,3.438854763E-1
5.650347667E0,-3.401795315E-1,-6.617644787E-2,-7.082264543E-2,3.537192149E-1
5.660271667E0,-9.385391425E-1,-2.597684026E-2,1.544144404E-1,9.515116067E-1
5.670194667E0,-1.477409839E0,-4.973641634E-3,4.437089797E-1,1.542608903E0
5.680117667E0,-1.842076560E0,-2.144524813E-2,7.340676391E-1,1.983068645E0
5.690041667E0,-2.021568100E0,-6.263888240E-2,1.006360778E0,2.259075746E0
5.699964667E0,-2.084807345E0,-8.443847179E-2,1.282273343E0,2.449035820E0
5.709888667E0,-2.030226365E0,-9.488101423E-2,1.518994360E0,2.537354009E0
5.719811667E0,-1.899018061E0,-7.086649954E-2,1.688383520E0,2.542032763E0
5.729735667E0,-1.782366986E0,-1.706276000E-2,1.781512123E0,2.520100922E0
5.739658667E0,-1.749914209E0,-4.202393889E-3,1.931439410E0,2.606276193E0
5.749582667E0,-1.710659511E0,-7.610560477E-2,2.114519241E0,2.720907872E0
5.759505667E0,-1.590816295E0,-1.857970315E-1,2.274598464E0,2.781908552E0
5.769429667E0,-1.324291434E0,-2.902312267E-1,2.309075986E0,2.677650813E0
5.779352667E0,-1.129445325E0,-3.284217310E-1,2.251016643E0,2.539799894E0
5.789276667E0,-6.907059304E-1,-2.506648725E-1,2.103605998E0,2.228242750E0
5.799199667E0,-2.334390483E-1,-1.053715038E-1,1.894895482E0,1.912125998E0
5.809123667E0,1.314003843E-1,2.306726575E-3,1.642816168E0,1.648064424E0
5.819046667E0,3.892954852E-1,1.072467059E-1,1.454611838E0,1.509618637E0
5.828969667E0,5.866277575E-1,1.345035017E-1,1.402692071E0,1.526357876E0
5.838893667E0,6.269608279E-1,1.330814588E-1,1.424110422E0,1.561691727E0
5.848816667E0,5.551092917E-1,1.437976509E-1,1.544349056E0,1.647373090E0
5.858740667E0,3.636326404E-1,1.999782836E-1,1.727052326E0,1.776212191E0
5.868663667E0,8.838139549E-2,2.220608783E-1,1.908676200E0,1.923581852E0
5.878587667E0,-1.627146361E-1,1.741324210E-1,2.035683571E0,2.049586728E0
5.888510667E0,-4.290319202E-1,7.785216808E-2,2.021659609E0,2.068148187E0
5.898434667E0,-7.918531132E-1,-9.081719935E-2,1.903957497E0,2.064057477E0
5.908357667E0,-1.105898076E0,-1.979241568E-1,1.735831336E0,2.067678639E0
5.918281667E0,-1.324860953E0,-2.391119438E-1,1.663201901E0,2.139783080E0
5.928204667E0,-1.510638543E0,-2.273572862E-1,1.635386696E0,2.237902989E0
5.938128667E0,-1.690721967E0,-1.667567432E-1,1.623279451E0,2.349762703E0
5.948051667E0,-1.777650184E0,-2.406480074E-2,1.521394057E0,2.339927171E0
5.957974667E0,-1.826091442E0,1.410582304E-1,1.243468881E0,2.213757492E0
5.967898667E0,-1.848357639E0,2.106611466E-1,8.495513177E-1,2.045126285E0
5.977821667E0,-1.850855862E0,1.528953338E-1,5.153701158E-1,1.927342928E0
5.987745667E0,-1.923797538E0,9.187963843E-2,2.937758454E-1,1.948266687E0
5.997668667E0,-2.076959943E0,8.024777234E-2,2.203640163E-1,2.090158513E0
6.007592667E0,-2.252740548E0,1.055568606E-1,1.818004231E-1,2.262528149E0
6.017515667E0,-2.372509067E0,-9.736783504E-3,-3.393614329E-2,2.372771742E0
6.027439667E0,-2.412386346E0,-4.827233201E-1,-5.181790086E-1,2.514187577E0
6.037362667E0,-2.469797233E0,-1.269320006E0,-1.395766629E0,3.107931166E0
6.047286667E0,-2.531318713E0,-2.271118201E0,-2.780500731E0,4.392805098E0
6.057209667E0,-2.595714099E0,-3.297143750E0,-4.609722626E0,6.233653125E0
6.067133667E0,-2.558732799E0,-4.027858595E0,-6.244095415E0,7.858720376E0
6.077056667E0,-2.227270662E0,-4.042287769E0,-7.220223749E0,8.569273948E0
6.086980667E0,-1.571879356E0,-3.489391429E0,-7.393825243E0,8.325581600E0
6.096903667E0,-7.874632430E-1,-2.945700946E0,-6.931536187E0,7.572545565E0
6.106826667E0,-4.025692494E-1,-2.560399840E0,-5.712480601E0,6.272969310E0
6.116750667E0,-6.171832600E-1,-2.181097977E0,-3.589066283E0,4.244938203E0
6.126674333E0,-1.215746208E0,-1.894706032E0,-1.215928203E0,2.558599458E0
6.136598333E0,-1.929304007E0,-1.837090493E0,4.373322621E-1,2.699699046E0
6.146521333E0,-2.952032311E0,-1.918918183E0,1.405920758E0,3.791220771E0
6.156445333E0,-4.435177976E0,-1.655299973E0,2.449784699E0,5.330315822E0
6.166368333E0,-5.905160975E0,-9.483552289E-1,3.329450493E0,6.845110983E0
6.176292333E0,-7.003056990E0,-2.710535288E-2,4.242580633E0,8.187980968E0
6.186215333E0,-7.841257693E0,1.150758938E0,5.004002717E0,9.372812359E0
6.196139333E0,-8.410854850E0,1.959317765E0,5.083113205E0,1.002095032E1
6.206062333E0,-8.275407608E0,2.180624353E0,4.543654937E0,9.689287581E0
6.215985333E0,-7.644111215E0,1.904519999E0,4.199083196E0,8.927033796E0
6.225909333E0,-6.663731371E0,1.334522308E0,4.472348142E0,8.135610824E0
6.235832333E0,-5.301005019E0,6.049090773E-1,4.683686396E0,7.099541355E0
6.245756333E0,-3.955229160E0,-1.987462753E-1,4.423906299E0,5.937531872E0
6.255679333E0,-2.590038791E0,-1.067123289E0,3.668297810E0,4.615567340E0
6.265603333E0,-9.886944388E-1,-1.860483449E0,2.636387039E0,3.374826214E0
6.275526333E0,5.307324690E-1,-2.423935182E0,1.958241878E0,3.160988765E0
6.285450333E0,1.213874076E0,-2.545844366E0,2.204689300E0,3.579869930E0
6.295373333E0,1.373840740E0,-2.473567518E0,2.733997825E0,3.934554454E0
6.305297333E0,1.365027816E0,-2.454639496E0,3.106176610E0,4.187706906E0
6.315220333E0,9.427819553E-1,-2.461805259E0,3.585845929E0,4.450574567E0
6.325144333E0,2.865626836E-1,-2.479597167E0,3.997060726E0,4.712431933E0
6.335067333E0,-9.075026700E-2,-2.361705605E0,4.237519283E0,4.852057157E0
6.344990333E0,-1.203737050E-1,-1.991085103E0,4.394110057E0,4.825672276E0
6.354914333E0,2.697109350E-1,-1.596198072E0,4.350998536E0,4.642389529E0
6.364837333E0,7.069274953E-1,-1.350642496E0,4.110361054E0,4.383953653E0
6.374761333E0,9.713575175E-1,-1.329170351E0,3.760166631E0,4.104763372E0
6.384684333E0,1.415220023E0,-1.345456601E0,3.397928113E0,3.919058131E0
6.394608333E0,2.167738844E0,-1.256804041E0,3.158560646E0,4.031768029E0
6.404531333E0,2.952869632E0,-9.821252382E-1,3.160335860E0,4.435282606E0
6.414455333E0,3.367030841E0,-5.893262476E-1,3.301929696E0,4.752572127E0
6.424378333E0,3.499453903E0,-2.959802091E-1,3.418809397E0,4.901228376E0
6.434302333E0,3.484555197E0,1.524076760E-2,3.422644293E0,4.884347568E0
6.444225333E0,3.443804782E0,2.778515017E-1,3.362153678E0,4.820899313E0
6.454149333E0,3.564365013E0,4.901861215E-1,3.300831296E0,4.882670133E0
6.464072333E0,3.983799533E0,8.545840162E-1,3.220993706E0,5.193820657E0
6.473995333E0,4.479862983E0,1.378765265E0,3.126089888E0,5.634057507E0
6.483919333E0,5.068762969E0,1.994827906E0,2.946547623E0,6.193047659E0
6.493842333E0,5.671710305E0,2.465508301E0,2.767352098E0,6.775342545E0
6.503766333E0,6.079196917E0,2.798255217E0,2.549607342E0,7.161519742E0
6.513689333E0,6.308115410E0,3.023964758E0,2.348239467E0,7.379086087E0
6.523613333E0,6.254069011E0,3.177234313E0,2.072920687E0,7.314724687E0
6.533536333E0,5.902567735E0,3.344800896E0,1.845707535E0,7.030976831E0
6.543460333E0,5.425612693E0,3.418979259E0,1.654252152E0,6.622933070E0
6.553383333E0,4.882082423E0,3.399164799E0,1.473724924E0,6.128696049E0
6.563307333E0,4.308061847E0,3.267532280E0,1.228210133E0,5.544787120E0
6.573230333E0,3.826233151E0,2.992036037E0,9.259394892E-1,4.944664165E0
6.583154333E0,3.425464405E0,2.530000166E0,5.773507114E-1,4.297445878E0
6.593077333E0,3.027355851E0,1.950976712E0,2.061061656E-1,3.607446927E0
6.603000333E0,2.648567666E0,1.296611885E0,-3.033114481E-1,2.964474809E0
6.612924333E0,2.309698861E0,5.673570889E-1,-8.697076933E-1,2.532389063E0
6.622847333E0,1.681397559E0,-1.962068295E-1,-1.523847549E0,2.277653666E0
6.632771333E0,6.052827144E-1,-9.694122219E-1,-1.878773539E0,2.199071902E0
6.642694333E0,-8.727460527E-1,-1.752707570E0,-1.843868001E0,2.689520162E0
6.652618333E0,-2.320017881E0,-2.552083345E0,-1.841731428E0,3.909934401E0
6.662541333E0,-3.149377593E0,-3.351286628E0,-2.199236040E0,5.097679908E0
6.672465333E0,-3.175734210E0,-4.026610215E0,-2.753179032E0,5.820556019E0
6.682388333E0,-2.460544599E0,-4.404028105E0,-3.270484539E0,6.012138754E0
6.692312333E0,-1.159018422E0,-4.288537409E0,-3.450680523E0,5.625128699E0
6.702235333E0,8.153307804E-1,-4.414989295E0,-3.101897618E0,5.456983011E0
6.712158333E0,3.147096595E0,-6.098517287E0,-2.714006195E0,7.379834666E0
6.722082333E0,3.957418650E0,-7.888944075E0,-2.821813649E0,9.266025753E0
6.732005333E0,2.723109725E0,-7.540275190E0,-2.819901609E0,8.498407004E0
6.741929333E0,1.719071023E0,-6.432586259E0,-1.369162967E0,6.797645062E0
6.751852333E0,1.549313927E0,-4.893811353E0,1.573378143E0,5.368918139E0
6.761776333E0,2.255019793E0,-1.993400016E0,3.417756021E0,4.554098606E0
6.771699333E0,2.330761847E0,1.281648275E0,2.847349609E0,3.896469285E0
6.781623333E0,2.123249865E0,3.748540612E0,1.636528072E0,4.608467298E0
6.791546333E0,2.169607468E0,5.221254260E0,1.473304217E0,5.842886096E0
6.801470333E0,2.141264113E0,5.909046450E0,1.467728312E0,6.454151249E0
6.811393333E0,1.948765295E0,6.282410465E0,1.188013887E0,6.684141263E0
6.821316333E0,1.736910439E0,6.223992687E0,8.667473942E-1,6.519677438E0
6.831240333E0,2.118707601E0,4.769397807E0,1.222173230E-1,5.220250417E0
6.841163333E0,3.126417624E0,1.540063632E0,-2.106517911E-1,3.491512184E0
6.851087333E0,3.320683178E0,-1.228650867E0,2.262000857E-1,3.547912936E0
6.861010333E0,2.833950422E0,-3.008789479E0,1.265699995E0,4.322740520E0
6.870934333E0,1.793761163E0,-3.724454176E0,2.242740494E0,4.703086534E0
6.880857333E0,5.976122638E-1,-3.161472559E0,2.777732075E0,4.250628735E0
6.890781333E0,-2.941283959E-1,-1.541346511E0,2.938222357E0,3.330977514E0
6.900704333E0,-5.858597258E-1,3.226674861E-1,2.636531757E0,2.720045152E0
6.910628333E0,-5.627012435E-1,1.439620746E0,2.190431888E0,2.680882772E0
6.920551333E0,-6.807822552E-1,1.752606997E0,1.630855688E0,2.488932712E0
6.930474333E0,-8.585698438E-1,1.472887310E0,1.010934543E0,1.982051426E0
6.940398333E0,-8.638357732E-1,8.494215095E-1,3.966376877E-1,1.274774725E0
6.950321333E0,-8.400990012E-1,2.953019321E-1,-8.677501917E-2,8.947063579E-1
6.960245333E0,-7.404817423E-1,-1.394900072E-1,-3.049287879E-1,8.128666794E-1
6.970168333E0,-6.087527810E-1,-4.103359598E-1,-3.697062895E-2,7.350662390E-1
6.980092333E0,-4.462945819E-1,-6.225454491E-1,4.547765529E-1,8.908217572E-1
6.990015333E0,-4.006661269E-1,-7.167400002E-1,7.356627595E-1,1.102474158E0
6.999939333E0,-5.894385141E-1,-6.430843788E-1,8.135265490E-1,1.192820492E0
7.009862333E0,-8.072446659E-1,-4.449386126E-1,4.995333342E-1,1.048402533E0
7.019786333E0,-9.622084522E-1,-1.897363007E-1,-9.845556334E-2,9.856665092E-1
7.029709333E0,-1.020519810E0,1.015766609E-1,-5.139902826E-1,1.147154964E0
7.039633333E0,-8.903061184E-1,3.896765774E-1,-5.544717260E-1,1.118897544E0
7.049556333E0,-5.165070704E-1,4.980354238E-1,-3.444442713E-1,7.959024394E-1
7.059479333E0,-5.715360940E-3,4.726228398E-1,-8.119092822E-2,4.795800047E-1
7.069403333E0,4.507413894E-1,5.224908185E-1,1.337443869E-1,7.028883386E-1
7.079326333E0,7.531982669E-1,6.579368913E-1,3.530325155E-1,1.060575570E0
7.089250333E0,9.028144822E-1,7.819282687E-1,5.690333395E-1,1.322983276E0
7.099173333E0,9.141618812E-1,8.213952202E-1,7.218175761E-1,1.425272839E0
7.109097333E0,8.542802534E-1,7.509801257E-1,7.351468889E-1,1.354328929E0
7.119020333E0,8.016263688E-1,6.329780513E-1,5.993583155E-1,1.184270425E0
7.128944667E0,6.302003315E-1,6.050786465E-1,3.395008890E-1,9.373011682E-1
7.138867667E0,4.773891976E-1,5.569163007E-1,4.762542531E-2,7.350676112E-1
7.148791667E0,4.212348774E-1,4.905474794E-1,-2.284349281E-1,6.857537224E-1
7.158714667E0,4.116796499E-1,3.591962117E-1,-4.222919078E-1,6.905305990E-1
7.168638667E0,3.774471259E-1,2.574874038E-1,-4.607623476E-1,6.488975550E-1
7.178561667E0,2.556478514E-1,2.654285073E-1,-2.997062011E-1,4.750072878E-1
7.188484667E0,6.349403769E-2,2.523365915E-1,-3.604983866E-2,2.626877216E-1
7.198408667E0,-1.075978677E-1,3.665327132E-1,2.119976740E-1,4.368827586E-1
7.208331667E0,-3.283214878E-1,5.258418578E-1,2.704534583E-1,6.763503026E-1
7.218255667E0,-6.168888527E-1,5.863921148E-1,1.290211523E-1,8.608449492E-1
7.228178667E0,-1.009682873E0,4.395691144E-1,-2.037345350E-1,1.119905474E0
7.238102667E0,-1.480049272E0,9.654922485E-2,-6.790997189E-1,1.631270680E0
7.248025667E0,-1.947655201E0,-2.517191255E-1,-1.122450228E0,2.261994212E0
7.257949667E0,-2.331902931E0,-5.412703210E-1,-1.517590590E0,2.834400473E0
7.267872667E0,-2.550366603E0,-7.879479772E-1,-2.005360642E0,3.338667867E0
7.277795667E0,-2.471509298E0,-1.082344176E0,-2.571831731E0,3.727485155E0
7.287719667E0,-2.309526806E0,-1.403641659E0,-2.961980179E0,4.009669632E0
7.297642667E0,-2.258147469E0,-1.641753144E0,-3.159577184E0,4.216338620E0
7.307566667E0,-2.282461215E0,-1.717412606E0,-3.214882781E0,4.300535612E0
7.317489667E0,-2.323005223E0,-1.615932425E0,-3.203345640E0,4.274226732E0
7.327413667E0,-2.354095454E0,-1.454463319E0,-3.262740194E0,4.278165790E0
7.337336667E0,-2.441681482E0,-1.409675986E0,-3.539075221E0,4.524825771E0
7.347260667E0,-2.646093709E0,-1.421664532E0,-3.931480694E0,4.947674444E0
7.357183667E0,-2.909515744E0,-1.525737369E0,-4.257716736E0,5.377853492E0
7.367107667E0,-3.249011225E0,-1.661308572E0,-4.392862262E0,5.710801954E0
7.377030667E0,-3.624285525E0,-1.836357837E0,-4.319396675E0,5.929995220E0
7.386953667E0,-4.021974542E0,-2.326488410E0,-4.090053089E0,6.190101922E0
7.396877667E0,-4.342613044E0,-3.261050057E0,-3.863282279E0,6.664659443E0
7.406800667E0,-4.562773578E0,-4.229758859E0,-4.021107692E0,7.408040888E0
7.416724667E0,-4.839823718E0,-4.759289725E0,-5.025190687E0,8.445547570E0
7.426647667E0,-5.099508213E0,-4.703400283E0,-6.663082330E0,9.618920126E0
7.436571667E0,-4.890029958E0,-4.329095451E0,-7.786748194E0,1.016301667E1
7.446494667E0,-3.824730124E0,-3.970419642E0,-8.593853989E0,1.021014785E1
7.456418667E0,-1.939703280E0,-3.513914067E0,-8.692270814E0,9.574216041E0
7.466341667E0,-8.419815123E-2,-3.133103038E0,-6.776103162E0,7.465855479E0
7.476265667E0,1.262535189E0,-3.190568304E0,-3.727107643E0,5.066068751E0
7.486188667E0,2.056994333E0,-3.822924212E0,-1.082155895E-1,4.342543705E0
7.496111667E0,3.098523189E0,-5.041019685E0,4.033305277E0,7.161024848E0
7.506035667E0,4.334934773E0,-5.793504884E0,7.863035063E0,1.068567633E1
7.515958667E0,4.316354661E0,-5.468175160E0,1.018884929E1,1.234279170E1
7.525882667E0,3.089854107E0,-4.463424706E0,1.005349092E1,1.142549948E1
7.535805667E0,1.811498399E0,-2.928515394E0,7.691849638E0,8.427471728E0
7.545729667E0,7.053271124E-1,-1.292762663E0,3.185854279E0,3.509756277E0
7.555652667E0,-5.350202322E-3,-2.221263671E-1,-9.997487462E-1,1.024141740E0
7.565576667E0,-7.575082496E-1,1.836505187E-1,-2.421208041E0,2.543579100E0
7.575499667E0,-1.901603115E0,4.659646153E-2,-1.285648648E0,2.295900278E0
7.585422667E0,-3.064137468E0,-2.643251377E-1,4.089658110E-1,3.102589118E0
7.595346667E0,-3.286690682E0,-8.268266988E-1,1.917465881E0,3.893925196E0
7.605269667E0,-2.094636807E0,-1.406319099E0,2.754160487E0,3.735055120E0
7.615193667E0,5.049805272E-1,-1.529724585E0,3.228381078E0,3.607978246E0
7.625116667E0,2.759607168E0,-1.276449516E0,3.332646289E0,4.511240004E0
7.635040667E0,4.006908314E0,-8.821904755E-1,3.271566274E0,5.247544203E0
7.644963667E0,4.702179385E0,-4.110563368E-1,3.138469320E0,5.668284392E0
7.654887667E0,5.085049219E0,1.180102605E-1,3.002465423E0,5.906475310E0
7.664810667E0,5.010184393E0,6.249387145E-1,2.950448885E0,5.847875227E0
7.674734667E0,4.496065910E0,8.726641917E-1,2.902247947E0,5.422102416E0
7.684657667E0,3.969981101E0,9.612261200E-1,2.823382165E0,4.965500220E0
7.694580667E0,3.660421903E0,1.105724852E0,2.735048862E0,4.701256027E0
7.704504667E0,3.340643526E0,1.564962246E0,2.696035655E0,4.569202802E0
7.714427667E0,2.837414605E0,2.084842283E0,2.864924293E0,4.539303932E0
7.724351667E0,2.377588250E0,2.490730850E0,3.233112938E0,4.723312961E0
7.734274667E0,2.189887658E0,2.787061892E0,3.508245484E0,4.987094176E0
7.744198667E0,2.119432071E0,2.876076980E0,3.713796456E0,5.153260639E0
7.754121667E0,2.128351122E0,2.847381769E0,3.808378093E0,5.209722175E0
7.764045667E0,2.195331854E0,2.847867672E0,3.725842305E0,5.178004743E0
7.773968667E0,2.258323762E0,2.913696796E0,3.510352236E0,5.090405490E0
7.783892667E0,2.336850699E0,3.173934730E0,3.282734164E0,5.129432371E0
7.793815667E0,2.366263363E0,3.567655241E0,3.151291679E0,5.315825945E0
7.803738667E0,2.347112563E0,4.044119702E0,3.128144892E0,5.625756128E0
7.813662667E0,2.300652487E0,4.534264308E0,3.141130096E0,5.976558622E0
7.823585667E0,2.270809614E0,4.955430481E0,3.121032338E0,6.281218864E0
7.833509667E0,2.240723205E0,5.286992167E0,2.900410168E0,6.433156752E0
7.843432667E0,2.106764079E0,5.422762175E0,2.479385498E0,6.323935241E0
7.853356667E0,1.964597655E0,5.248556664E0,2.043218001E0,5.965042397E0
7.863279667E0,1.646023366E0,4.702043145E0,1.633428463E0,5.242775143E0
7.873203667E0,9.791696168E-1,3.832570363E0,1.340939334E0,4.176779504E0
7.883126667E0,1.990478455E-1,2.735076637E0,5.917613205E-1,2.805431467E0
7.893049667E0,-2.963143775E-1,1.379159952E0,-7.084860706E-1,1.578555319E0
7.902973667E0,-7.432651632E-1,-8.526526809E-2,-1.843389991E0,1.989422008E0
7.912896667E0,-1.294593426E0,-1.591202796E0,-2.912916777E0,3.562721239E0
7.922820667E0,-2.034794210E0,-2.956388487E0,-3.579623322E0,5.068956844E0
7.932743667E0,-2.810735222E0,-4.246424008E0,-3.936436794E0,6.436449640E0
7.942667667E0,-3.701522566E0,-5.386995342E0,-5.595984185E0,8.604419046E0
7.952590667E0,-4.514946570E0,-6.052686810E0,-7.823604949E0,1.087329548E1
7.962514667E0,-4.447385209E0,-6.121275820E0,-8.197108712E0,1.115535047E1
7.972437667E0,-3.449498216E0,-5.304194090E0,-6.635154859E0,9.168358244E0
7.982360667E0,-1.975190032E0,-3.498438826E0,-5.221079428E0,6.587876766E0
7.992284667E0,-6.074510812E-1,-1.084233996E0,-4.015299361E0,4.203235555E0
8.002207667E0,4.808504570E-1,8.578999722E-1,-2.662239625E0,2.838085507E0
8.012131667E0,2.029556274E0,1.522194541E0,-1.757164171E0,3.086065588E0
8.022054667E0,4.220432842E0,1.666187489E-1,-1.015575843E0,4.344100537E0
8.031978667E0,6.453701139E0,-2.064057770E0,4.902057096E-2,6.775912919E0
8.041901667E0,7.448065184E0,-3.959879451E0,1.551500347E0,8.576798563E0
8.051825667E0,6.903576556E0,-5.737741742E0,2.983769828E0,9.459594703E0
8.061748667E0,5.714568642E0,-6.721404798E0,4.162493659E0,9.754995166E0
8.071672667E0,4.643759269E0,-7.036021838E0,4.511317495E0,9.561489894E0
8.081595667E0,3.149958222E0,-5.731279399E0,2.047639958E0,6.852928553E0
8.091518667E0,4.784873047E-1,-1.974304764E0,-2.518546640E0,3.235723501E0
8.101442667E0,-7.718868452E-1,1.400459604E0,-2.337340111E0,2.832005508E0
8.111365667E0,-1.462420210E0,3.796695356E0,-6.772245169E-3,4.068613322E0
8.121289667E0,-2.320072845E0,5.573463049E0,2.209287404E0,6.428621874E0
8.131212167E0,-1.966357813E0,7.005887042E0,4.685216027E0,8.654493949E0
8.141136167E0,-1.159876501E0,7.717932898E0,6.405700761E0,1.009677196E1
8.151059167E0,-6.689664942E-1,7.393340508E0,6.133551464E0,9.629613367E0
8.160983167E0,-5.402906200E-1,5.651581265E0,5.364698739E0,7.811035611E0
8.170906167E0,-9.220184925E-1,2.776052170E0,5.614053251E0,6.330416862E0
8.180829167E0,-1.050928840E0,-2.503204715E-1,5.698207548E0,5.799713874E0
8.190753167E0,-9.607679176E-1,-2.684195920E0,5.160630913E0,5.895769174E0
8.200676167E0,-1.095343852E0,-4.268441699E0,4.673749638E0,6.423652260E0
8.210600167E0,-1.366236143E0,-4.729378293E0,3.985687891E0,6.333982018E0
8.220523167E0,-1.655969772E0,-3.793201060E0,2.736174159E0,4.961578297E0
8.230447167E0,-1.799470677E0,-1.825920557E0,-3.135031450E-1,2.582704942E0
8.240370167E0,-1.339296851E0,3.291795301E-1,-4.327191013E0,4.541657988E0
8.250294167E0,-4.965934273E-1,9.063043928E-1,-4.826988203E0,4.936375978E0
8.260217167E0,-1.916366458E-2,5.185860479E-1,-4.692333258E0,4.720941658E0
8.270141167E0,7.207242930E-1,1.649645716E-1,-4.571235083E0,4.630642180E0
8.280064167E0,1.151434583E0,-1.601382798E-1,-3.778545599E0,3.953334379E0
8.289987167E0,1.164944063E0,-3.261003864E-1,-2.370990399E0,2.661772267E0
8.299911167E0,8.999300507E-1,-9.424659133E-2,-8.906139743E-1,1.269625838E0
8.309834167E0,3.367683024E-1,2.318257284E-1,2.029755481E-1,4.564593421E-1
8.319758167E0,-1.518786126E-1,4.845955986E-1,8.695938188E-1,1.007022054E0
8.329681167E0,-3.402658510E-1,7.129065657E-1,1.335256133E0,1.551426944E0
8.339605167E0,-4.057064999E-1,9.513606977E-1,1.627665448E0,1.928465647E0
8.349528167E0,-5.779885695E-1,1.200829230E0,1.812626912E0,2.249817314E0
8.359452167E0,-8.783189609E-1,1.328186849E0,1.961498777E0,2.526460361E0
8.369375167E0,-1.301190547E0,1.077056538E0,1.981230206E0,2.603540043E0
8.379298167E0,-1.848276801E0,4.667171520E-1,1.801695542E0,2.622986630E0
8.389222167E0,-2.156915355E0,7.644649744E-3,1.525778884E0,2.642033969E0
8.399145167E0,-2.192065307E0,-1.557949680E-1,1.258388051E0,2.532382844E0
8.409069167E0,-2.284373839E0,-1.527555853E-1,8.508225024E-1,2.442457172E0
8.418992167E0,-2.246168424E0,-5.508311033E-2,2.943348026E-1,2.266040537E0
8.428916167E0,-1.919806667E0,5.022524357E-2,-2.949991194E-1,1.942988599E0
8.438839167E0,-1.390319071E0,6.969120920E-2,-8.588969956E-1,1.635710253E0
8.448763167E0,-8.755597329E-1,1.139084387E-1,-1.305285060E0,1.575864545E0
8.458686167E0,-4.609816913E-1,1.748720938E-1,-1.586579987E0,1.661421206E0
8.468609167E0,-1.973204318E-1,1.840697640E-1,-1.630086195E0,1.652270569E0
8.478533167E0,-8.141107589E-2,1.602651644E-1,-1.442036816E0,1.453197462E0
8.488456167E0,-7.594604887E-2,1.307677156E-1,-1.116768561E0,1.126960522E0
8.498380167E0,-9.027962096E-2,5.261558533E-2,-8.133428002E-1,8.200276339E-1
8.508303167E0,-1.371213001E-1,-2.648788691E-2,-5.672886765E-1,5.842262418E-1
8.518227167E0,-1.674149935E-1,-6.630157828E-2,-4.011413594E-1,4.397022510E-1
8.528150167E0,-1.956960753E-1,-8.433556080E-2,-3.183563340E-1,3.830929340E-1
8.538074167E0,-2.083668454E-1,-9.376711965E-2,-2.543221597E-1,3.418900056E-1
8.547997167E0,-2.520937128E-1,-4.946685970E-2,-1.812415389E-1,3.143989594E-1
8.557920167E0,-3.344271138E-1,2.655103683E-2,-7.224176466E-2,3.431695275E-1
8.567844167E0,-4.765610126E-1,1.222319502E-1,1.423731230E-2,4.921927971E-1
8.577767167E0,-7.265054351E-1,1.723431730E-1,6.907783628E-2,7.498560288E-1
8.587691167E0,-1.164324624E0,7.133544624E-2,1.228277083E-1,1.172956616E0
8.597614167E0,-1.711127727E0,-8.565878570E-2,2.157216925E-1,1.726798012E0
8.607538167E0,-2.191282804E0,-2.967268986E-1,3.572343978E-1,2.239951694E0
8.617461167E0,-2.528759387E0,-5.662244833E-1,4.558255434E-1,2.631161555E0
8.627385167E0,-2.788475164E0,-7.381197596E-1,4.457261594E-1,2.918747391E0
8.637308167E0,-2.983799064E0,-7.996231127E-1,2.677521908E-1,3.100668511E0
8.647231167E0,-3.086931084E0,-7.677142721E-1,-6.170902893E-2,3.181561995E0
8.657155167E0,-3.090724758E0,-8.369599235E-1,-5.880661726E-1,3.255595685E0
8.667078167E0,-2.980278163E0,-1.086647726E0,-1.201184741E0,3.392006190E0
8.677002167E0,-2.889945990E0,-1.508965800E0,-1.801212562E0,3.724665396E0
8.686925167E0,-2.879780021E0,-2.209077489E0,-2.257297868E0,4.274172433E0
8.696849167E0,-2.974566895E0,-3.220060490E0,-2.427813640E0,5.011099365E0
8.706772167E0,-3.127137124E0,-4.294966423E0,-2.467051966E0,5.857650431E0
8.716696167E0,-3.366264271E0,-5.018825993E0,-2.755535460E0,6.641786292E0
8.726619167E0,-3.800309813E0,-5.059989806E0,-3.518547986E0,7.240582258E0
8.736542167E0,-4.249350247E0,-4.635140473E0,-4.527399677E0,7.748474208E0
8.746466167E0,-4.453087121E0,-4.273129996E0,-5.367049904E0,8.178927164E0
8.756389167E0,-4.159503101E0,-3.904820899E0,-6.073242697E0,8.332668789E0
8.766313167E0,-3.372925419E0,-3.452874983E0,-6.884959606E0,8.408426744E0
8.776236167E0,-2.277799668E0,-2.773691064E0,-7.547884172E0,8.357768178E0
8.786160167E0,-1.109362405E0,-1.927515344E0,-6.965219657E0,7.311654069E0
8.796083167E0,-2.715764160E-1,-1.208228881E0,-4.237605822E0,4.414846983E0
8.806007167E0,2.408807266E-1,-9.005343604E-1,-8.082910252E-1,1.233823342E0
8.815930167E0,1.018332513E0,-1.164244371E0,1.874067700E0,2.429937408E0
8.825853167E0,1.269920076E0,-1.369113851E0,4.101763308E0,4.506842794E0
8.835777167E0,9.491143437E-1,-1.453514315E0,6.293568707E0,6.528593184E0
8.845700167E0,3.842683415E-1,-1.144643335E0,8.318408031E0,8.405580450E0
8.855624167E0,-4.449473834E-1,-4.071919119E-1,9.877093291E0,9.895491666E0
8.865547167E0,-1.000938435E0,-1.159011698E-1,9.566283374E0,9.619204147E0
8.875471167E0,-1.608412613E0,-8.169741404E-1,6.795915867E0,7.031280847E0
8.885394167E0,-2.157484874E0,-1.764327157E0,3.282094771E0,4.305779532E0
8.895318167E0,-2.785672886E0,-2.380010898E0,7.368333721E-1,3.737291629E0
8.905241167E0,-3.242864339E0,-2.252590129E0,5.458201857E-1,3.986006910E0
8.915164167E0,-3.509173437E0,-1.733453858E0,2.009131365E0,4.399519216E0
8.925088167E0,-3.439379317E0,-1.105181646E0,3.175012372E0,4.809517659E0
8.935011167E0,-2.594293518E0,-4.051757920E-1,3.782488084E0,4.604534980E0
8.944935167E0,-1.587830706E0,2.533639473E-1,4.136138797E0,4.437684507E0
8.954858167E0,-6.077949706E-1,8.789113569E-1,4.345475256E0,4.474936324E0
8.964782167E0,1.448826018E-1,1.220624979E0,4.610992349E0,4.772019148E0
8.974705167E0,7.886098820E-1,1.414802824E0,4.855506535E0,5.118546307E0
8.984629167E0,1.218778428E0,1.531830168E0,4.831687610E0,5.213168871E0
8.994552167E0,1.319337673E0,1.554495145E0,4.621819346E0,5.051566205E0
9.004475167E0,1.341980723E0,1.455675446E0,4.328933483E0,4.760206757E0
9.014399167E0,1.410287897E0,1.283379636E0,3.880011163E0,4.323246681E0
9.024322167E0,1.511157629E0,1.056374937E0,3.544434779E0,3.995315167E0
9.034246167E0,1.674542868E0,8.451045102E-1,3.425874295E0,3.905753466E0
9.044169167E0,1.927256312E0,7.823364043E-1,3.396629154E0,3.982895524E0
9.054093167E0,2.343156483E0,8.562615824E-1,3.253203678E0,4.099621979E0
9.064016167E0,2.802135722E0,1.041171591E0,3.082680451E0,4.294056549E0
9.073939167E0,3.280797274E0,1.365776260E0,3.063688402E0,4.692031774E0
9.083863167E0,3.642216889E0,1.766067873E0,3.059710249E0,5.074107449E0
9.093786167E0,3.993494217E0,2.181509621E0,2.858813368E0,5.373992385E0
9.103710167E0,4.151784776E0,2.600869004E0,2.587942272E0,5.540693243E0
9.113633167E0,4.207732105E0,2.869607620E0,2.259233150E0,5.571695594E0
9.123557167E0,4.196898969E0,3.026842173E0,1.768957128E0,5.468541287E0
9.133480208E0,4.160878074E0,3.026241079E0,1.154384211E0,5.272916111E0
9.143404208E0,4.024057320E0,2.811532490E0,4.838790223E-1,4.932736681E0
9.153327208E0,3.781322734E0,2.288189732E0,-1.206894547E-2,4.419769171E0
9.163250208E0,3.242812591E0,1.639367480E0,-2.140504852E-1,3.639941874E0
9.173174208E0,2.548525314E0,1.082667527E0,-3.503558064E-1,2.791039133E0
9.183097208E0,2.072500272E0,6.925138164E-1,-4.380815828E-1,2.228620254E0
9.193021208E0,1.652556752E0,5.376889014E-1,-4.605933630E-1,1.797831867E0
9.202944208E0,1.341800337E0,3.257618326E-1,-5.229223430E-1,1.476481186E0
9.212868208E0,6.061471521E-1,7.347084939E-2,-8.186091681E-1,1.021241062E0
9.222791208E0,-3.540971473E-1,-1.881967288E-1,-1.835774285E0,1.879060942E0
9.232715208E0,-1.099467747E0,-5.626646984E-1,-2.622377987E0,2.898669901E0
9.242638208E0,-2.195780043E0,-1.115065194E0,-2.846109999E0,3.763663443E0
9.252561208E0,-3.333718376E0,-1.907036056E0,-2.433809668E0,4.546855422E0
9.262485208E0,-4.181487755E0,-2.820776353E0,-2.037696183E0,5.440020662E0
9.272408208E0,-4.363807155E0,-3.837511845E0,-2.235841803E0,6.226419405E0
9.282332208E0,-3.744392597E0,-4.499603183E0,-3.204280025E0,6.673403570E0
9.292255208E0,-2.882570313E0,-4.093205323E0,-4.070007080E0,6.452015116E0
9.302179208E0,-2.026032449E0,-2.396680140E0,-3.700199926E0,4.851841163E0
9.312102208E0,-1.528508072E0,9.999908209E-3,-2.522264299E0,2.949280272E0
9.322025208E0,-8.572518083E-1,2.176468152E0,-1.162459216E0,2.612126664E0
9.331949208E0,1.675362136E-1,3.603023295E0,1.945229776E-1,3.612157864E0
9.341872208E0,1.459865269E0,4.069932820E0,1.887971355E0,4.718049979E0
9.351796208E0,3.387757173E0,3.334182352E0,3.965607383E0,6.190291798E0
9.361719208E0,5.410493547E0,1.194914187E0,6.176467688E0,8.297590821E0
9.371643208E0,6.242803180E0,-1.423794672E0,7.695535723E0,1.001104654E1
9.381566208E0,5.966222278E0,-3.615334607E0,7.582961619E0,1.030377404E1
9.391490208E0,4.961318042E0,-4.686952066E0,5.786373035E0,8.947866186E0
9.401413208E0,3.191664657E0,-4.560496087E0,3.295366781E0,6.468716261E0
9.411336208E0,1.883273556E0,-4.633806138E0,-1.231491444E0,5.151257108E0
9.421260208E0,-3.098412165E-2,-5.162754622E0,-1.003267133E1,1.128315068E1
9.431183208E0,-1.590298524E0,-4.878263022E0,-1.138195844E1,1.248501011E1
9.441107208E0,-2.128201433E0,-3.368917737E0,-8.764625430E0,9.627954455E0
9.451030208E0,-2.181590020E0,-5.454306149E-1,-5.531055533E0,5.970712259E0
9.460954208E0,-1.602350220E0,2.698305252E0,-8.551167706E-1,3.252630036E0
9.470877208E0,-7.163394660E-1,4.661658180E0,4.471267576E0,6.498956298E0
9.480801208E0,3.694315069E-1,5.055192751E0,8.292228878E0,9.718668280E0
9.490724208E0,9.457067326E-1,5.114679984E0,7.515662506E0,9.139994281E0
9.500647208E0,1.459376442E0,4.554855863E0,6.770558832E0,8.289569254E0
9.510571208E0,2.464378326E0,2.799225855E0,7.400846579E0,8.287421554E0
9.520494208E0,2.537006007E0,4.966519725E-1,7.965498161E0,8.374498410E0
9.530418208E0,1.429203639E0,-1.282147043E0,7.596799639E0,7.835680497E0
9.540341208E0,-1.490462579E-2,-1.714047534E0,6.606482452E0,6.825231973E0
9.550265208E0,-1.006418957E0,-1.142225511E0,5.519841743E0,5.725924475E0
9.560188208E0,-1.121916377E0,-2.054132706E-1,4.369089822E0,4.515510695E0
9.570111208E0,-8.136005893E-1,6.680063814E-1,2.992887976E0,3.172626181E0
9.580035208E0,-7.527415994E-1,1.080664271E0,1.731154733E0,2.175167095E0
9.589958208E0,-1.148271240E0,6.772058058E-1,-1.311625196E0,1.870159137E0
9.599882208E0,-1.903018142E0,-8.392882848E-1,-6.158168242E0,6.499916843E0
9.609805208E0,-2.173924613E0,-1.536018528E0,-6.538831336E0,7.059859516E0
9.619729208E0,-2.450277766E0,-1.712194551E0,-5.724026513E0,6.457549909E0
9.629652208E0,-2.300912104E0,-1.679361266E0,-4.572292845E0,5.387050457E0
9.639576208E0,-1.596850913E0,-1.176047561E0,-3.142600086E0,3.716040366E0
9.649499208E0,-7.420999593E-1,-1.663673186E-1,-1.949756398E0,2.092830726E0
9.659422208E0,-3.037050388E-1,8.102498424E-1,-8.778594428E-1,1.232630828E0
9.669346208E0,-2.407380545E-1,1.377184178E0,1.913770294E-1,1.411104616E0
9.679269208E0,-2.580159920E-1,1.345801587E0,1.059004430E0,1.731832713E0
9.689193208E0,-3.841734704E-1,9.801792848E-1,1.551399629E0,1.874881728E0
9.699116208E0,-6.061002282E-1,6.208450788E-1,1.915469495E0,2.102814658E0
9.709040208E0,-8.946383205E-1,3.949911118E-1,2.200287369E0,2.407833095E0
9.718963208E0,-1.205608598E0,2.360462487E-1,2.358500746E0,2.659273527E0
9.728886208E0,-1.595892555E0,1.449928218E-1,2.225467819E0,2.742371780E0
9.738810208E0,-1.935267583E0,1.857408983E-1,1.748872381E0,2.615017190E0
9.748733208E0,-1.992493405E0,1.789288920E-1,1.222263368E0,2.344349219E0
9.758657208E0,-1.688381035E0,1.441771352E-1,8.025712057E-1,1.874976828E0
9.768580208E0,-1.205786865E0,1.175296193E-1,5.539926197E-1,1.332157272E0
9.778504208E0,-7.660273504E-1,1.976563543E-1,3.930510056E-1,8.833770594E-1
9.788427208E0,-4.412291390E-1,3.525450039E-1,2.986839616E-1,6.388921989E-1
9.798351208E0,-1.652356631E-1,4.799470621E-1,1.480344703E-1,5.287402115E-1
9.808274208E0,9.732800089E-2,5.253004056E-1,-1.474808852E-1,5.542236619E-1
9.818197208E0,3.290991309E-1,3.884819913E-1,-5.468795550E-1,7.471959202E-1
9.828121208E0,5.656112565E-1,1.366739881E-1,-9.157950816E-1,1.085023734E0
9.838044208E0,6.813453421E-1,-1.678864253E-1,-1.117935008E0,1.319922728E0
9.847968208E0,6.396567410E-1,-2.885133147E-1,-1.039454849E0,1.254139969E0
9.857891208E0,5.903873710E-1,-3.506657088E-1,-7.685207494E-1,1.030605564E0
9.867815208E0,4.934516452E-1,-3.226353264E-1,-4.406299455E-1,7.360318124E-1
9.877738208E0,3.370788261E-1,-1.775928032E-1,-1.255069757E-1,4.011400500E-1
9.887661208E0,2.712552577E-2,6.599869251E-2,-8.942146897E-3,7.191372298E-2
9.897585208E0,-4.479301943E-1,2.107242966E-1,-1.154949345E-1,5.083161103E-1
9.907508208E0,-1.088148707E0,1.521036208E-1,-2.823000634E-1,1.134414582E0
9.917432208E0,-1.795550996E0,-1.972031951E-2,-3.483502114E-1,1.829136446E0
9.927355208E0,-2.465991281E0,-2.958457232E-1,-2.537061556E-1,2.496598586E0
9.937279208E0,-2.984235851E0,-6.018726182E-1,-1.853640452E-2,3.044381360E0
9.947202208E0,-3.370610506E0,-8.284001845E-1,2.090261190E-1,3.477204907E0
9.957125208E0,-3.641751451E0,-1.048641409E0,3.005012763E-1,3.801618530E0
9.967049208E0,-3.834544383E0,-1.374106203E0,1.624695647E-1,4.076554286E0
9.976972208E0,-4.019107652E0,-1.840284242E0,-2.301570792E-1,4.426380541E0
9.986896208E0,-4.154492329E0,-2.297714261E0,-7.769313844E-1,4.810708858E0
9.996819208E0,-4.127259215E0,-2.796544322E0,-1.264879192E0,5.143427664E0
1.000674321E1,-3.986991820E0,-3.404096341E0,-1.543841664E0,5.465109583E0
1.001666621E1,-3.780541838E0,-4.186653185E0,-1.706967287E0,5.893581152E0
1.002659021E1,-3.522472344E0,-4.569399058E0,-2.079351162E0,6.132774284E0
1.003651321E1,-3.395819022E0,-4.244749950E0,-2.984394311E0,6.201298120E0
1.004643621E1,-3.477112277E0,-3.683929464E0,-4.156737660E0,6.552870673E0
1.005636021E1,-3.641531303E0,-3.481768414E0,-5.256169154E0,7.280849930E0
1.006628321E1,-3.691900680E0,-3.516395625E0,-6.112930673E0,7.960093608E0
1.007620721E1,-3.419638824E0,-3.321584526E0,-6.712732792E0,8.233324663E0
1.008613021E1,-2.898658342E0,-2.589414309E0,-7.066967057E0,8.065315247E0
1.009605421E1,-2.093713386E0,-1.707206292E0,-6.912038062E0,7.421216829E0
1.010597721E1,-1.094022381E0,-9.903364831E-1,-5.840536963E0,6.024078629E0
1.011590021E1,-1.859569529E-1,-3.725576842E-1,-4.006468896E0,4.028048191E0
1.012582421E1,5.036379334E-1,-3.842322350E-2,-1.833579240E0,1.901878109E0
1.013574742E1,7.746917546E-1,-3.755204684E-1,6.610066795E-1,1.085399819E0
1.014567142E1,8.603919093E-1,-1.194407818E0,2.736685206E0,3.107463626E0
1.015559442E1,8.744125092E-1,-1.941082639E0,4.683624415E0,5.144777615E0
1.016551842E1,7.258204338E-1,-2.293567416E0,7.232791754E0,7.622371242E0
1.017544142E1,2.393619123E-1,-2.170457214E0,9.679956754E0,9.923192098E0
1.018536442E1,-4.458257083E-1,-1.934126206E0,1.037269160E1,1.056088707E1
1.019528842E1,-7.627099326E-1,-2.166711488E0,8.107447507E0,8.426569302E0
1.020521142E1,-9.691649578E-1,-2.585442295E0,4.425090945E0,5.215862579E0
1.021513542E1,-1.204945377E0,-2.652547866E0,7.821551406E-1,3.016565962E0
1.022505842E1,-1.576467812E0,-2.298923466E0,-5.668431187E-1,2.844575713E0
1.023498242E1,-2.134718740E0,-1.800260636E0,4.205036831E-1,2.823966324E0
1.024490542E1,-2.171899137E0,-1.350643081E0,1.760751146E0,3.105096970E0
1.025482842E1,-1.495362838E0,-1.018217177E0,2.614145107E0,3.179092776E0
1.026475242E1,-5.132209352E-1,-6.588250834E-1,3.092584172E0,3.203361216E0
1.027467542E1,5.361820740E-1,-1.736739993E-1,3.435257907E0,3.481185252E0
1.028459942E1,1.355094859E0,3.376474679E-1,3.815252372E0,4.062811656E0
1.029452242E1,1.959325951E0,8.095914459E-1,4.170498497E0,4.678402955E0
1.030444642E1,2.251389111E0,1.248911469E0,4.227161525E0,4.949487584E0
1.031436942E1,2.243536592E0,1.587426079E0,3.986781321E0,4.842293186E0
1.032429242E1,2.339012268E0,1.701025785E0,3.578862600E0,4.601382903E0
1.033421642E1,2.566553450E0,1.624533679E0,3.137104580E0,4.366661360E0
1.034413942E1,2.768336184E0,1.550873964E0,2.940107499E0,4.325867241E0
1.035406342E1,2.953838808E0,1.647447163E0,2.945605052E0,4.485068002E0
1.036398642E1,3.038577242E0,1.795304536E0,2.844281283E0,4.532770240E0
1.037391042E1,3.189018792E0,2.000648224E0,2.765391526E0,4.671169497E0
1.038383342E1,3.689049578E0,2.372841042E0,2.640399106E0,5.119684447E0
1.039375742E1,4.095791254E0,2.829688679E0,2.450971830E0,5.548865373E0
1.040368042E1,4.181724274E0,3.383487829E0,2.393852135E0,5.887727562E0
1.041360342E1,4.189366585E0,3.911188517E0,2.462140597E0,6.237814066E0
1.042352742E1,4.219323333E0,4.280718513E0,2.386682864E0,6.467108741E0
1.043345042E1,4.055302502E0,4.482568490E0,2.148479577E0,6.415205620E0
1.044337442E1,3.818775027E0,4.416647565E0,1.773171363E0,6.101963217E0
1.045329742E1,3.566890426E0,4.079960795E0,1.261907783E0,5.564278808E0
1.046322142E1,3.256699436E0,3.524620904E0,7.214540255E-1,4.852786791E0
1.047314442E1,2.784117234E0,2.816887954E0,4.596543002E-1,3.987160468E0
1.048306742E1,2.205049634E0,2.081244491E0,3.378155753E-1,3.050891982E0
1.049299142E1,1.616373889E0,1.512517399E0,1.357442808E-1,2.217836771E0
1.050291442E1,1.119586042E0,1.141245518E0,-6.696684524E-2,1.600124619E0
1.051283842E1,6.901676942E-1,6.664884442E-1,-5.919754748E-1,1.127374496E0
1.052276142E1,4.543956068E-1,-4.304954052E-2,-1.037099590E0,1.133094961E0
1.053268542E1,-2.450787351E-1,-8.444385123E-1,-1.660449032E0,1.878890889E0
1.054260842E1,-9.526337097E-1,-1.741709542E0,-1.980004191E0,2.803833039E0
1.055253142E1,-1.742327885E0,-2.602167671E0,-2.181091107E0,3.816299446E0
1.056245542E1,-2.932280416E0,-3.363323121E0,-3.072750417E0,5.417749162E0
1.057237842E1,-4.107421659E0,-3.998945283E0,-4.093745314E0,7.044233582E0
1.058230242E1,-4.575389822E0,-4.484921409E0,-4.306790078E0,7.719919226E0
1.059222542E1,-4.187441390E0,-4.609735490E0,-3.918716222E0,7.358033943E0
1.060214942E1,-3.250904845E0,-3.956466431E0,-3.659580488E0,6.294008125E0
1.061207242E1,-1.723758882E0,-2.315262925E0,-3.853478837E0,4.814674054E0
1.062199542E1,-4.292079945E-1,-3.533226836E-1,-3.762026045E0,3.802880012E0
1.063191942E1,2.977965736E-1,1.335535630E0,-2.881780354E0,3.190140471E0
1.064184242E1,9.694166804E-1,2.631764522E0,-1.672647639E0,3.265532625E0
1.065176642E1,1.992152805E0,3.057193900E0,-3.029291864E-1,3.661539762E0
1.066168942E1,3.437732156E0,2.378272521E0,1.416222528E0,4.413600436E0
1.067161342E1,4.838148199E0,7.112389398E-1,3.275165820E0,5.885596824E0
1.068153642E1,5.529536426E0,-1.414647288E0,4.967801435E0,7.566772835E0
1.069145942E1,5.492464494E0,-3.550358593E0,6.066067579E0,8.920167500E0
1.070138342E1,4.446269852E0,-4.774297189E0,6.056585734E0,8.901991912E0
1.071130642E1,2.389362058E0,-4.648294954E0,4.916589181E0,7.175551979E0
1.072123042E1,4.241663790E-1,-3.874225343E0,2.320521326E0,4.535896642E0
1.073115342E1,-8.343956271E-1,-3.303164043E0,-4.387443062E0,5.554886622E0
1.074107742E1,-2.094358041E0,-2.946564580E0,-1.036904176E1,1.098114773E1
1.075100042E1,-2.049326587E0,-2.207071309E0,-8.062885877E0,8.607033861E0
1.076092342E1,-2.075278577E0,-6.903982937E-1,-4.842915434E0,5.313874375E0
1.077084742E1,-2.188653457E0,1.449341158E0,-1.967749450E0,3.280675486E0
1.078077042E1,-9.506055298E-1,3.531597217E0,1.193879814E0,3.847230015E0
1.079069442E1,9.958811054E-1,4.321665979E0,4.385943836E0,6.237393634E0
1.080061742E1,2.234880667E0,4.329541009E0,5.402329080E0,7.274941679E0
1.081054142E1,3.072985475E0,3.834045616E0,4.671031852E0,6.779504707E0
1.082046442E1,3.861427542E0,2.517835618E0,4.839360327E0,6.683526557E0
1.083038742E1,4.311535386E0,8.685044825E-1,5.819744264E0,7.294728282E0
1.084031142E1,3.783985556E0,-5.137901616E-1,5.827503519E0,6.967232182E0
1.085023442E1,2.449326131E0,-9.401328743E-1,5.061448102E0,5.700991599E0
1.086015842E1,1.124029561E0,-6.510634893E-1,4.337296756E0,4.527633959E0
1.087008142E1,3.778423977E-1,-9.461613536E-2,3.808454107E0,3.828320751E0
1.088000542E1,2.116376317E-1,6.526679653E-1,3.166553205E0,3.240034746E0
1.088992842E1,2.299089929E-1,1.238773566E0,2.232717782E0,2.563678370E0
1.089985142E1,-3.848956016E-1,1.278049899E0,-3.454125337E-1,1.378718966E0
1.090977542E1,-1.628850386E0,5.732083976E-1,-3.737320390E0,4.116950952E0
1.091969842E1,-2.044160280E0,-7.158512235E-2,-3.899695814E0,4.403560278E0
1.092962242E1,-1.991694091E0,-3.768524641E-1,-2.779152364E0,3.439847524E0
1.093954542E1,-1.818426473E0,-6.605541050E-1,-1.799799875E0,2.642401588E0
1.094946942E1,-1.526824074E0,-7.493545997E-1,-1.053981671E0,2.000900156E0
1.095939242E1,-1.288242473E0,-6.772443974E-1,-8.693704551E-1,1.695297505E0
1.096931542E1,-8.984039274E-1,-2.580890822E-1,-8.754381108E-1,1.280676180E0
1.097923942E1,-5.721921881E-1,3.446816683E-1,-5.611766551E-1,8.724268398E-1
1.098916242E1,-2.683851519E-1,8.290158963E-1,-2.769475222E-2,8.718170367E-1
1.099908642E1,-7.947480697E-2,1.023057502E0,4.960999223E-1,1.139771043E0
1.100900942E1,-1.404864093E-1,9.389295173E-1,9.767550822E-1,1.362121713E0
1.101893342E1,-3.698373036E-1,7.695707631E-1,1.190871933E0,1.465330936E0
1.102885642E1,-6.249453657E-1,5.619460756E-1,1.027366388E0,1.327336354E0
1.103877942E1,-8.012623065E-1,3.633769709E-1,6.766726859E-1,1.109932444E0
1.104870342E1,-8.449668083E-1,1.987708336E-1,3.668929017E-1,9.423848220E-1
1.105862642E1,-7.506064886E-1,1.455880684E-1,1.316231632E-1,7.758418933E-1
1.106855042E1,-5.676737522E-1,1.843264568E-1,-2.995769776E-2,5.976012009E-1
1.107847342E1,-3.277207229E-1,2.642578948E-1,-1.145798452E-1,4.363045360E-1
1.108839642E1,-1.291264021E-1,2.841425210E-1,-1.757982928E-1,3.582117247E-1
1.109832042E1,6.054060906E-4,2.772135705E-1,-2.637668748E-1,3.826495713E-1
1.110824342E1,1.184775261E-1,3.140849429E-1,-3.613981269E-1,4.932493099E-1
1.111816742E1,2.217711487E-1,3.344180506E-1,-4.408321130E-1,5.961130991E-1
1.112809042E1,2.799304061E-1,2.783660567E-1,-4.586113031E-1,6.051223192E-1
1.113801429E1,2.563687583E-1,1.355589241E-1,-3.879459478E-1,4.843585661E-1
1.114793729E1,1.644374451E-1,-5.944747210E-2,-2.691882670E-1,3.209922092E-1
1.115786029E1,-1.595383555E-2,-2.843015653E-1,-2.182280284E-1,3.587553167E-1
1.116778429E1,-2.491820186E-1,-3.759057999E-1,-2.924286103E-1,5.375047357E-1
1.117770729E1,-4.763564332E-1,-2.594117224E-1,-4.975289087E-1,7.360332249E-1
1.118763129E1,-7.955025798E-1,-5.231094539E-2,-7.838882554E-1,1.118052587E0
1.119755429E1,-1.217187693E0,7.417193055E-2,-9.756184566E-1,1.561690983E0
1.120747829E1,-1.720850477E0,2.056816578E-2,-9.641411032E-1,1.972642259E0
1.121740129E1,-2.211865149E0,-1.360214388E-1,-7.583218896E-1,2.342200110E0
1.122732429E1,-2.603200289E0,-3.304536384E-1,-5.080831330E-1,2.672826186E0
1.123724829E1,-2.930537654E0,-4.842769253E-1,-3.426059067E-1,2.989975567E0
1.124717129E1,-3.221480779E0,-6.996918583E-1,-3.077670264E-1,3.310925497E0
1.125709529E1,-3.372476937E0,-1.151500949E0,-4.443844427E-1,3.591243888E0
1.126701829E1,-3.310598193E0,-1.763309741E0,-6.716146982E-1,3.810562680E0
1.127694229E1,-3.113174850E0,-2.316955109E0,-9.709278202E-1,4.000354916E0
1.128686529E1,-2.998811498E0,-2.786349701E0,-1.329983699E0,4.304122640E0
1.129678829E1,-2.993597243E0,-3.233593286E0,-1.633743628E0,4.699666822E0
1.130671229E1,-3.072890165E0,-3.901773330E0,-1.817993633E0,5.288817442E0
1.131663529E1,-3.145583335E0,-4.601889111E0,-2.045630854E0,5.937733869E0
1.132655929E1,-3.289805494E0,-4.916809037E0,-2.477061814E0,6.413553346E0
1.133648229E1,-3.473164821E0,-4.866324177E0,-3.199428005E0,6.780879326E0
1.134640629E1,-3.551423956E0,-4.845451956E0,-4.262603838E0,7.366193607E0
1.135632929E1,-3.444661984E0,-4.900217562E0,-5.765570396E0,8.313821644E0
1.136625229E1,-3.048347062E0,-4.580490056E0,-7.340636630E0,9.173780851E0
1.137617629E1,-2.269801262E0,-3.510518004E0,-8.449367536E0,9.426958480E0
1.138609929E1,-1.252554431E0,-2.148108571E0,-8.954496217E0,9.293345228E0
1.139602329E1,-2.011260921E-1,-9.197629291E-1,-8.415608051E0,8.468109259E0
1.140594629E1,6.980262789E-1,3.145509660E-2,-6.349407277E0,6.387738479E0
1.141586929E1,1.255150594E0,5.837556052E-1,-3.360594810E0,3.634524879E0
1.142579329E1,1.721027355E0,4.186723351E-1,8.886835892E-2,1.773448411E0
1.143571629E1,2.332214296E0,-4.073860395E-1,3.209659463E0,3.988370692E0
1.144564029E1,2.233209825E0,-1.193192182E0,5.146073685E0,5.735242634E0
1.145556329E1,1.497451025E0,-1.272742381E0,6.569832104E0,6.857472320E0
1.146548729E1,8.067058450E-1,-7.655163038E-1,7.588711771E0,7.669767654E0
1.147541029E1,3.122314487E-1,-6.089740616E-1,7.084070163E0,7.117049105E0
1.148533329E1,-4.673306711E-2,-1.194541134E0,5.031517375E0,5.171583857E0
1.149525729E1,-6.224738207E-1,-2.033648740E0,3.029803787E0,3.701744433E0
1.150518029E1,-7.640072105E-1,-2.814032174E0,1.148609647E0,3.133973232E0
1.151510429E1,-6.821898262E-1,-2.932120203E0,3.516939417E-1,3.030907533E0
1.152502729E1,-6.199630263E-1,-2.311904869E0,8.531194349E-1,2.541076750E0
1.153495129E1,-6.461743400E-1,-1.486571549E0,2.075752201E0,2.633663503E0
1.154487429E1,-5.715930678E-1,-7.101168591E-1,2.992987379E0,3.128731059E0
1.155479729E1,-1.122166565E-2,-1.379942894E-2,3.108820721E0,3.108871600E0
1.156472129E1,8.258779880E-1,6.658464199E-1,3.194941729E0,3.366463806E0
1.157464429E1,1.515131689E0,1.219145633E0,3.516283651E0,4.018232301E0
1.158456829E1,2.023416113E0,1.618316334E0,3.920909513E0,4.699648064E0
1.159449129E1,2.350156184E0,1.824091548E0,4.197505617E0,5.144861268E0
1.160441529E1,2.456004821E0,1.816669092E0,4.066311640E0,5.085974501E0
1.161433829E1,2.348169301E0,1.773535352E0,3.585637184E0,4.638547264E0
1.162426129E1,2.348087732E0,1.837977515E0,2.915564396E0,4.170394837E0
1.163418529E1,2.424831560E0,1.879072332E0,2.460157514E0,3.932314321E0
1.164410829E1,2.389623721E0,1.969374391E0,2.241825989E0,3.822894295E0
1.165403229E1,2.923382124E0,1.692853131E0,2.595152474E0,4.259898018E0
1.166395529E1,2.565193095E0,2.297918914E0,2.503399135E0,4.257658298E0
1.167387829E1,2.776738925E0,2.590433478E0,2.340442790E0,4.460750735E0
1.168380229E1,3.456480668E0,2.757663846E0,2.375605313E0,5.019508851E0
1.169372529E1,3.986631632E0,3.145701449E0,2.446970873E0,5.637050277E0
1.170364929E1,4.286522459E0,3.541321721E0,2.586078180E0,6.132131332E0
1.171357229E1,4.283268776E0,3.807137314E0,2.686663445E0,6.329205827E0
1.172349629E1,4.130473722E0,3.899930288E0,2.696270128E0,6.288095261E0
1.173341929E1,3.949372589E0,4.043486449E0,2.580042976E0,6.213207567E0
1.174334229E1,3.808946150E0,3.910544153E0,2.192809658E0,5.882927889E0
1.175326629E1,3.549409590E0,3.415776739E0,1.542463622E0,5.161882717E0
1.176318929E1,2.924814984E0,2.882690181E0,1.034248488E0,4.234868983E0
1.177311329E1,2.173743057E0,2.323994572E0,6.906424150E-1,3.256239640E0
1.178303629E1,1.171974171E0,1.714589571E0,2.918183072E-1,2.097259826E0
1.179296029E1,-1.799398756E-1,1.645386019E0,-3.307910228E-1,1.687926602E0
1.180288329E1,-2.907138412E-1,7.471542925E-1,-8.443108968E-1,1.164308793E0
1.181280629E1,-9.396555953E-2,-3.470515448E-1,-1.378076317E0,1.424208073E0
1.182273029E1,-1.088758864E0,-1.259568604E0,-2.125514345E0,2.699948178E0
1.183265329E1,-2.110713288E0,-2.353663929E0,-3.076762776E0,4.411497893E0
1.184257729E1,-3.127144725E0,-2.751773361E0,-3.466105478E0,5.418964656E0
1.185250029E1,-4.120822307E0,-2.977120374E0,-3.823372693E0,6.361022006E0
1.186242329E1,-4.834076490E0,-3.251727841E0,-4.426014805E0,7.316531727E0
1.187234729E1,-4.438055976E0,-4.275340828E0,-4.643505499E0,7.716023806E0
1.188227029E1,-3.081767701E0,-4.984252576E0,-4.469475989E0,7.369958041E0
1.189219429E1,-2.111945004E0,-4.838168664E0,-4.376860771E0,6.857484811E0
1.190211729E1,-1.154696745E0,-3.822867494E0,-4.633017933E0,6.116575481E0
1.191204129E1,-6.037554216E-1,-1.739744877E0,-4.584625207E0,4.940649870E0
1.192196429E1,-2.660401261E-1,6.788763553E-1,-3.913335614E0,3.980684123E0
1.193188729E1,2.536940409E-1,2.372905362E0,-2.855184878E0,3.721172021E0
1.194181129E1,1.258245379E0,2.611422059E0,-2.360616853E0,3.738344357E0
1.195173429E1,2.872155544E0,1.203539414E0,-1.133090991E0,3.313861763E0
1.196165829E1,4.128913977E0,-1.672535811E0,2.217001197E0,4.975982413E0
1.197158129E1,4.042648835E0,-4.497700499E0,6.031691798E0,8.541289442E0
1.198150529E1,3.550215628E0,-5.993919954E0,7.084527415E0,9.935876213E0
1.199142829E1,3.898295991E0,-5.360187027E0,6.055927337E0,8.977893546E0
1.200135129E1,4.752603726E0,-3.385606275E0,4.221873304E0,7.202345883E0
1.201127529E1,3.658899872E0,-1.140975961E0,1.243029170E0,4.029205373E0
1.202119829E1,1.375297866E0,1.480759417E0,-1.026617287E0,2.266723566E0
1.203112229E1,-1.393348513E0,2.476201689E0,-5.082544856E0,5.822822090E0
1.204104529E1,-2.706058367E0,3.362539009E0,-7.177595208E0,8.375398106E0
1.205096829E1,-7.104589212E-1,4.174130203E0,-3.082098361E0,5.237121837E0
1.206089229E1,1.128139276E0,4.355271097E0,9.024569249E-1,4.588628668E0
1.207081529E1,1.460857249E0,4.885955034E0,2.608424191E0,5.728048294E0
1.208073929E1,8.261615049E-1,5.032921291E0,4.017649941E0,6.492638185E0
1.209066229E1,6.475252660E-1,3.931495312E0,5.274105488E0,6.610002500E0
1.210058629E1,1.178448062E0,2.678352213E0,5.684457820E0,6.393384950E0
1.211050929E1,1.908274789E0,1.305512516E0,4.957537233E0,5.470196616E0
1.212043229E1,1.873052916E0,3.090417194E-1,3.631451288E0,4.097715518E0
1.213035629E1,1.313947125E0,-2.110686976E-1,2.282648910E0,2.642251519E0
1.214027929E1,8.509156924E-1,-2.863708949E-1,1.416229983E0,1.676834271E0
1.215020329E1,8.025872856E-1,-4.442965883E-1,1.181528594E0,1.495846125E0
1.216012629E1,1.453491219E0,-7.471420133E-1,1.168747750E0,2.009186207E0
1.217004929E1,2.267060526E0,-4.988148576E-1,9.593706523E-1,2.511726844E0
1.217997329E1,2.545480962E0,1.026320833E0,6.039670908E-1,2.810264049E0
1.218989629E1,1.583894361E0,3.717040492E0,1.735732810E-1,4.044161105E0
1.219982029E1,5.896004089E-1,2.666022774E0,-2.991898920E-1,2.746783695E0
1.220974329E1,-5.907612274E-1,8.039073676E-1,-3.276471211E-1,1.050056436E0
1.221966729E1,-2.901159781E0,2.702780710E0,9.070078129E-1,4.067482614E0
1.222959029E1,-3.374326411E0,2.386415938E0,7.927695912E-1,4.208270831E0
1.223951329E1,-2.399829158E0,-7.612723947E-2,3.448646861E-1,2.425676606E0
1.224943729E1,-1.566854697E0,-1.763471124E0,7.731673855E-1,2.482468903E0
1.225936029E1,-1.038187319E0,-2.462191175E0,9.365415144E-1,2.831488707E0
1.226928429E1,-7.250290862E-1,-2.537281703E0,5.618231378E-1,2.697982738E0
1.227920729E1,-1.515532516E-1,-3.288133190E0,2.178043976E-1,3.298822066E0
1.228913129E1,4.365200838E-1,-5.416589854E0,-1.840732723E-1,5.437267549E0
1.229905429E1,2.087452187E0,-9.715049404E0,-6.776917094E-1,9.959864839E0
1.230897729E1,1.974181680E0,-8.136635638E0,-1.278952709E0,8.469826022E0
1.231890129E1,4.643730032E-1,-3.363796746E0,-2.075351082E0,3.979680005E0
1.232882429E1,-7.009493020E-1,1.548518121E-2,-2.555602784E0,2.650033076E0
1.233874829E1,-1.510499964E0,2.616523755E0,-2.721021392E0,4.065927215E0
1.234867129E1,-2.514785711E0,5.057055089E0,-2.716611714E0,6.267210907E0
1.235859429E1,-3.256456484E0,6.492344803E0,-2.490734943E0,7.678464067E0
1.236851829E1,-2.487621886E0,5.431087441E0,-2.022954329E0,6.306926165E0
1.237844129E1,-1.471839782E0,3.221130531E0,-1.334481962E0,3.784552331E0
1.238836529E1,-9.546310455E-1,1.056403588E0,-4.267555261E-1,1.486414899E0
1.239828829E1,-4.901086459E-1,-9.211563206E-1,5.900501329E-1,1.198705390E0
1.240821229E1,3.131188367E-1,-2.401207640E0,1.474369580E0,2.835067405E0
1.241813529E1,7.484023806E-1,-2.682563378E0,2.285017033E0,3.602437402E0
1.242805829E1,3.706421363E-1,-1.423328649E0,2.724472711E0,3.096125254E0
1.243798229E1,5.761092013E-1,1.772361231E-1,2.154190260E0,2.236928728E0
1.244790529E1,9.747567232E-1,1.200749123E0,9.158037063E-1,1.797399665E0
1.245782929E1,1.126626455E0,1.178136186E0,-8.270290855E-1,1.827913880E0
1.246775229E1,1.003472984E0,4.411273974E-1,-2.282714984E0,2.532259684E0
1.247767529E1,2.276231883E-1,-4.024007034E-1,-2.561249440E0,2.602640455E0
1.248759929E1,-8.197875282E-1,-9.256569225E-1,-1.874624355E0,2.245686710E0
1.249752229E1,-1.283759997E0,-6.838271928E-1,-1.111508772E0,1.830604029E0
1.250744629E1,-1.199171837E0,1.335042125E-1,-7.080879483E-1,1.399008582E0
1.251736929E1,-1.437973586E0,3.645241946E-1,-5.314594240E-1,1.575783945E0
1.252729329E1,-2.214256660E0,-8.670245522E-1,-7.696176870E-1,2.499395030E0
1.253721629E1,-2.132112051E0,-2.121525959E0,-1.283556806E0,3.270212878E0
1.254713929E1,-1.358148859E0,-2.616650639E0,-1.747842686E0,3.427299658E0
1.255706329E1,-1.136976466E0,-2.758791189E0,-1.970353800E0,3.575743057E0
1.256698629E1,-1.293899654E0,-2.795524567E0,-2.164808073E0,3.765040227E0
1.257691029E1,-1.251693574E0,-3.516420184E0,-2.497359838E0,4.490963580E0
1.258683329E1,-1.619466189E0,-5.431670408E0,-2.394949365E0,6.153169640E0
1.259675629E1,-2.577937686E0,-6.563526467E0,-2.693214666E0,7.548446703E0
1.260668029E1,-4.042705553E0,-6.415129981E0,-2.324987429E0,7.931136577E0
1.261660329E1,-5.230280607E0,-6.237623132E0,-3.536946834E0,8.875458888E0
1.262652729E1,-5.948317519E0,-5.725861369E0,-7.578053466E0,1.120691144E1
1.263645029E1,-5.954452418E0,-5.141500577E0,-8.672314852E0,1.170895284E1
1.264637429E1,-5.126327637E0,-4.381257293E0,-9.195589782E0,1.140322419E1
1.265629729E1,-3.279148943E0,-3.305743250E0,-8.935781618E0,1.007615747E1
1.266622029E1,-1.352861222E0,-1.642176483E0,-6.335456990E0,6.683187290E0
1.267614429E1,2.778107174E-1,4.473318779E-1,-2.825872786E0,2.874515891E0
1.268606729E1,1.249866319E0,1.611731785E0,6.798899701E-1,2.149905936E0
1.269599129E1,1.828423165E0,1.868816900E0,3.762870383E0,4.582008446E0
1.270591429E1,2.244950449E0,1.501047501E0,6.328834434E0,6.880922279E0
1.271583729E1,2.457447329E0,8.204263365E-1,8.470470137E0,8.857822029E0
1.272576129E1,2.527148771E0,6.128221142E-1,9.543261716E0,9.891201951E0
1.273568429E1,2.728628035E0,3.952717781E-1,8.914301287E0,9.330938761E0
1.274560829E1,3.064017308E0,-7.849799305E-1,7.036175619E0,7.714412674E0
1.275553129E1,2.620619729E0,-2.714724233E0,5.067698776E0,6.318144214E0
1.276545429E1,7.533494174E-1,-4.014111207E0,3.815512866E0,5.589164745E0
1.277537829E1,-9.500795728E-1,-3.657486016E0,2.648603626E0,4.614645850E0
1.278530129E1,-1.389241429E0,-2.953304080E0,1.536521097E-1,3.267354543E0
1.279522529E1,-3.755014284E-1,-1.174175282E0,-3.840395107E0,4.033400984E0
1.280514829E1,9.639985042E-1,7.798794043E-1,-4.153499765E0,4.334635544E0
1.281507229E1,1.330202092E0,7.394675428E-1,4.641996333E-1,1.591141462E0
1.282499529E1,1.044978129E0,-1.012149521E0,2.352659962E0,2.766122709E0
1.283491829E1,1.261142090E0,-1.282196159E0,3.147581913E0,3.625159067E0
1.284484229E1,1.301746910E0,-9.247447568E-1,3.515056028E0,3.860740443E0
1.285476529E1,1.040968401E0,-5.173879534E-1,2.918424854E0,3.141418332E0
1.286468929E1,1.221112783E0,1.086781043E-1,2.509351016E0,2.792806810E0
1.287461229E1,1.551246578E0,2.399843484E-1,2.376159045E0,2.847822017E0
1.288453529E1,2.267275996E0,5.020010054E-2,2.291254842E0,3.223803537E0
1.289445929E1,3.009721525E0,5.678815842E-3,2.024075386E0,3.627028684E0
1.290438229E1,3.785063490E0,1.884791493E-2,1.504050046E0,4.072987529E0
1.291430629E1,4.122085306E0,7.444265664E-2,1.030809448E0,4.249670234E0
1.292422929E1,3.646568094E0,5.395459771E-2,7.255912229E-1,3.718447605E0
1.293415329E1,3.086156036E0,-1.616240573E-1,7.501647314E-1,3.180130271E0
1.294407629E1,2.678113647E0,-4.326232070E-1,1.118438161E0,2.934341402E0
1.295399929E1,2.670698208E0,-5.786229193E-1,1.695587289E0,3.215967919E0
1.296392329E1,3.023131822E0,-6.851030552E-1,2.551554757E0,4.014862873E0
1.297384629E1,3.435971267E0,-6.832752156E-1,2.794804483E0,4.481483646E0
1.298377029E1,3.975940875E0,-4.391586399E-1,2.161389644E0,4.546709948E0
1.299369329E1,4.508357635E0,-4.648676777E-1,1.263126635E0,4.704984529E0
1.300361629E1,4.288678035E0,-6.942697352E-1,1.933595279E-1,4.348811063E0
1.301354029E1,3.549247914E0,-1.126583040E0,-5.990343797E-1,3.771629925E0
1.302346329E1,3.142431394E0,-1.282517172E0,-8.330878973E-1,3.494819137E0
1.303338729E1,2.591159118E0,-7.728259081E-1,-7.666901323E-1,2.810547850E0
1.304331029E1,1.294783168E0,-2.448977637E-1,-5.148581555E-1,1.414749903E0
1.305323329E1,4.466439530E-1,-1.547991872E-1,-2.277730232E-1,5.247229357E-1
1.306315729E1,1.917047659E-1,-3.170898271E-1,-6.997626096E-2,3.770853388E-1
1.307308029E1,2.786294737E-1,-4.222631103E-1,3.745463222E-2,5.072902201E-1
1.308300429E1,8.169004655E-1,-3.713578355E-1,2.674428731E-2,8.977462166E-1
1.309292729E1,1.042647721E0,-4.631936198E-1,-4.795333716E-1,1.237584281E0
1.310285029E1,1.112471370E0,-4.815924686E-1,-1.071724463E0,1.618059695E0
1.311277429E1,1.160301301E0,-5.193625581E-1,-1.768243037E0,2.177778688E0
1.312269729E1,1.372133353E0,-3.872868204E-1,-2.888185394E0,3.220924695E0
1.313262092E1,1.444928264E0,-1.455091310E-1,-3.602878869E0,3.884549747E0
1.314254392E1,9.209566382E-1,-1.444794363E-1,-3.579045618E0,3.698459540E0
1.315246792E1,2.980325818E-3,-4.698951137E-1,-3.128704762E0,3.163795788E0
1.316239092E1,-8.490551814E-1,-6.733074671E-1,-2.284931663E0,2.528863451E0
1.317231392E1,-1.137516748E0,-7.133796054E-1,-2.015763277E0,2.422014947E0
1.318223792E1,-5.865897506E-1,-3.734400290E-1,-2.398160509E0,2.496941893E0
1.319216092E1,1.740599155E-2,-3.121951228E-1,-2.551541308E0,2.570628680E0
1.320208492E1,3.181996286E-1,-2.731713903E-1,-2.798410753E0,2.829660113E0
1.321200792E1,2.305446035E-1,-7.732574326E-1,-1.965637582E0,2.124807986E0
1.322193092E1,-4.682526308E-1,-1.254436503E0,-1.258940613E-1,1.344886903E0
1.323185492E1,-9.383956665E-1,-1.441369064E0,1.436433868E0,2.240864445E0
1.324177792E1,-4.313379890E-1,-1.467493254E0,1.418848074E0,2.086317035E0
1.325170192E1,3.067975581E-2,-1.347176267E0,1.327141367E0,1.891330048E0
1.326162492E1,1.308919104E0,-1.154057937E0,3.209232616E-1,1.774291600E0
1.327154792E1,2.464321901E0,-3.660117263E-1,-1.841075370E0,3.097806568E0
1.328147192E1,2.394765762E0,1.107322311E-1,-3.849112136E0,4.534625555E0
1.329139492E1,1.315253978E0,1.271816182E-1,-3.472068468E0,3.715013814E0
1.330131892E1,1.022344142E0,-4.756674850E-1,1.268226357E-1,1.134694268E0
1.331124192E1,1.565403711E0,-6.541098887E-1,2.858363425E0,3.323941935E0
1.332116592E1,1.710714621E0,-7.973690110E-1,2.816472802E0,3.390407188E0
1.333108892E1,1.534293015E0,-6.422710311E-1,2.182487276E0,2.744051355E0
1.334101192E1,1.667492003E0,-2.397948986E-1,8.306050964E-1,1.878280064E0
1.335093592E1,2.264873375E0,5.083271080E-1,-1.430936023E0,2.726834383E0
1.336085892E1,2.346495243E0,2.220565513E0,-3.256238383E0,4.586942286E0
1.337078292E1,2.301365848E0,2.729557450E0,-2.040572428E0,4.112262695E0
1.338070592E1,1.873761306E0,2.179861876E0,5.708022684E-1,2.930630386E0
1.339062892E1,1.161066409E0,1.566395983E0,2.948429841E0,3.534814014E0
1.340055292E1,1.251796485E0,5.066700071E-1,3.894828007E0,4.122304470E0
1.341047592E1,1.772771121E0,1.133248866E-2,3.775328169E0,4.170845076E0
1.342039992E1,2.535573732E0,2.322286016E-1,3.092713396E0,4.005988071E0
1.343032292E1,2.789942231E0,7.341173404E-1,6.173477130E-1,2.950224418E0
1.344024592E1,2.381010772E0,1.019450939E0,-2.434182135E0,3.554396599E0
1.345016992E1,2.404956290E0,9.110996944E-1,-3.478240204E0,4.325745292E0
1.346009292E1,2.797223184E0,4.306240439E-1,-2.505933026E0,3.780158057E0
1.347001692E1,2.566162856E0,2.394312018E-1,-9.091584188E-1,2.732963251E0
1.347993992E1,1.798389527E0,-1.854216403E-1,1.564182812E-1,1.814677038E0
1.348986292E1,1.740305625E0,-9.495305192E-1,9.964520860E-1,2.218825959E0
1.349978692E1,1.293305284E0,-3.360587794E-1,1.679389917E0,2.146141784E0
1.350970992E1,1.929247874E-1,2.468261755E-1,2.071642778E0,2.095196156E0
1.351963392E1,-2.968485206E-1,3.259226310E-1,1.888936292E0,1.939697121E0
1.352955692E1,-7.351873809E-1,5.765775633E-1,5.186924672E-1,1.068636536E0
1.353948092E1,-1.460802285E0,8.621251702E-1,-3.795345819E-1,1.738174221E0
1.354940392E1,-1.661412653E0,8.705919385E-1,-4.679836589E-1,1.933191928E0
1.355932692E1,-1.038726870E0,7.876924539E-1,-2.688795340E-1,1.331055640E0
1.356925092E1,-5.254933637E-1,8.131360281E-1,-7.437658310E-4,9.681601255E-1
1.357917392E1,-4.045501399E-1,8.322160774E-1,5.271715146E-1,1.064966770E0
1.358909792E1,-3.860834634E-1,8.744627953E-1,8.550582254E-1,1.282524928E0
1.359902092E1,6.626824915E-2,9.361433190E-1,1.044430245E0,1.404133302E0
1.360894392E1,5.972533178E-1,1.047233400E0,8.437041020E-1,1.471477465E0
1.361886792E1,6.830571145E-1,1.050590871E0,4.724977094E-1,1.339239443E0
1.362879092E1,4.561763763E-1,8.125887287E-1,1.807818747E-1,9.492520290E-1
1.363871492E1,9.444481194E-2,5.973059428E-1,3.157145619E-2,6.055501372E-1
1.364863792E1,-4.675550580E-1,4.506706381E-1,1.075887680E-3,6.493942669E-1
1.365856092E1,-7.213154465E-1,3.018022817E-1,-7.321298718E-2,7.853284231E-1
1.366848492E1,-4.076620281E-1,3.264219832E-1,-3.647048736E-1,6.369845250E-1
1.367840792E1,-1.537811869E-1,3.048808408E-1,-4.394685423E-1,5.565371328E-1
1.368833192E1,-4.898563385E-2,2.022850102E-1,-2.220316422E-1,3.043301954E-1
1.369825492E1,-1.393754017E-1,4.707534850E-2,2.869333971E-1,3.224474614E-1
1.370817792E1,-1.038559055E-1,2.506292045E-2,7.987021762E-1,8.058159625E-1
1.371810192E1,2.157260048E-1,9.033538878E-2,7.615226555E-1,7.966272318E-1
1.372802492E1,3.795813596E-1,2.014266390E-1,4.544134408E-1,6.254168807E-1
1.373794892E1,3.093679941E-1,3.467445660E-1,2.514776355E-1,5.283761453E-1
1.374787192E1,-1.775857866E-2,5.458644783E-1,4.344902229E-1,6.979005299E-1
1.375779492E1,-5.067489445E-1,7.819306076E-1,9.987734306E-1,1.365927646E0
1.376771892E1,-8.960799515E-1,1.017153568E0,1.549439642E0,2.058718987E0
1.377764192E1,-5.126528782E-1,1.146610923E0,1.546934695E0,1.992620519E0
1.378756592E1,-1.024771321E-1,9.924426502E-1,1.236156353E0,1.588561143E0
1.379748892E1,-1.194241172E-1,9.476406991E-1,1.512007522E0,1.788421584E0
1.380741292E1,8.193177044E-2,8.103632784E-1,1.655925041E0,1.845396759E0
1.381733592E1,3.567631853E-1,6.287148464E-1,1.374209114E0,1.552743707E0
1.382725892E1,6.327248669E-1,2.969806677E-1,1.042255080E0,1.254923873E0
1.383718292E1,8.459856856E-1,-9.230297685E-2,1.200164402E0,1.471260076E0
1.384710592E1,1.070631033E0,-3.597394180E-1,1.522245412E0,1.895493169E0
1.385702992E1,1.193752345E0,-5.683938003E-1,1.739717980E0,2.185116661E0
1.386695292E1,1.183328806E0,-8.261805815E-1,1.912090974E0,2.395607086E0
1.387687592E1,1.160866435E0,-1.153918773E0,2.038317742E0,2.614168822E0
1.388679992E1,8.986205667E-1,-1.437705199E0,1.581614531E0,2.318624525E0
1.389672292E1,6.575179383E-1,-1.635672625E0,8.798954433E-1,1.970271749E0
1.390664692E1,7.597927567E-1,-1.714239323E0,3.120126897E-1,1.900855967E0
1.391656992E1,1.107980708E0,-1.631901755E0,-5.633792281E-2,1.973296366E0
1.392649292E1,1.511497937E0,-1.361463938E0,-3.871441483E-2,2.034627454E0
1.393641692E1,1.651963552E0,-1.279635664E0,3.492389882E-1,2.118588889E0
1.394633992E1,1.740421108E0,-1.334557391E0,9.405708307E-1,2.386374352E0
1.395626392E1,1.713511929E0,-1.367666665E0,1.155470039E0,2.478254678E0
1.396618692E1,1.414378024E0,-1.464050413E0,1.070979527E0,2.300196938E0
1.397610992E1,8.744013995E-1,-1.626412389E0,7.976947010E-1,2.011494942E0
1.398603392E1,2.757172680E-1,-1.768780981E0,3.852630991E-1,1.831129112E0
1.399595692E1,-1.876216552E-1,-1.864523875E0,-2.585568595E-1,1.891693108E0
1.400588092E1,-3.133628118E-1,-1.865253022E0,-8.739166653E-1,2.083529560E0
1.401580392E1,-1.882081309E-1,-1.752980635E0,-1.340301111E0,2.214671640E0
1.402572692E1,6.159924746E-2,-1.587628977E0,-1.483571928E0,2.173786075E0
1.403565092E1,6.203974745E-1,-1.386125740E0,-1.214793550E0,1.944726449E0
1.404557392E1,1.201664505E0,-1.078596695E0,-9.228888506E-1,1.859863501E0
1.405549792E1,1.572973808E0,-7.319737512E-1,-7.649818683E-1,1.896109025E0
1.406542092E1,1.862925830E0,-4.457022589E-1,-6.995304751E-1,2.039236631E0
1.407534392E1,2.007521042E0,-2.097337782E-1,-6.611563683E-1,2.123971924E0
1.408526792E1,1.876261868E0,-2.485183597E-2,-3.943771541E-1,1.917422632E0
1.409519092E1,1.683860114E0,3.383532268E-1,-4.932740360E-1,1.786949094E0
1.410511492E1,1.550878057E0,7.398528743E-1,-7.855745924E-1,1.889373564E0
1.411503792E1,1.522215299E0,7.933747780E-1,-8.672052312E-1,1.923181704E0
1.412496092E1,1.152388557E0,5.839883244E-1,-8.461961854E-1,1.544373573E0
1.413488508E1,7.292407626E-1,1.639600199E-1,-6.091237503E-1,9.642130061E-1
1.414480808E1,4.590710405E-1,-8.658498466E-2,-7.645982909E-1,8.960210523E-1
1.415473208E1,1.988345683E-1,-1.286165249E-1,-1.133009130E0,1.157491721E0
1.416465508E1,-5.774417818E-3,-7.944962740E-2,-1.156009153E0,1.158750512E0
1.417457808E1,-3.011316061E-5,-2.250710249E-2,-1.004974403E0,1.005226403E0
1.418450208E1,2.801784012E-1,4.370384395E-2,-1.098041026E0,1.134065279E0
1.419442508E1,5.821186772E-1,-1.688383520E-2,-8.545723218E-1,1.034137840E0
1.420434908E1,7.987179637E-1,-2.534434694E-1,-6.588104653E-1,1.065933960E0
1.421427208E1,9.386149371E-1,-5.084177399E-1,-7.497299910E-1,1.304446878E0
1.422419608E1,7.734270018E-1,-8.149036413E-1,-7.640708721E-1,1.358698484E0
1.423411908E1,6.410983720E-1,-1.090327379E0,-7.209441483E-1,1.455878216E0
1.424404208E1,8.859598830E-1,-1.193947057E0,-7.835631502E-1,1.680596828E0
1.425396608E1,1.208459846E0,-1.236727041E0,-7.442815554E-1,1.882504717E0
1.426388908E1,1.283840689E0,-1.138841143E0,-7.651467597E-1,1.879003892E0
1.427381308E1,1.019840364E0,-1.018391424E0,-7.570986521E-1,1.628003019E0
1.428373608E1,7.289159498E-1,-9.869187856E-1,-8.517948943E-1,1.493613636E0
1.429365908E1,4.653068036E-1,-1.014274399E0,-9.594199151E-1,1.471648583E0
1.430358308E1,1.608253276E-1,-1.012937141E0,-9.418502015E-1,1.392475580E0
1.431350608E1,4.389037013E-2,-1.074305423E0,-6.451759279E-1,1.253918054E0
1.432343008E1,1.641629183E-1,-1.041964474E0,-4.695413572E-1,1.154603185E0
1.433335308E1,3.788030952E-1,-9.091087174E-1,-4.612424040E-1,1.087527011E0
1.434327608E1,4.280088767E-1,-8.141253769E-1,-5.763389969E-1,1.085430038E0
1.435320008E1,3.452874398E-1,-9.029574466E-1,-7.635756129E-1,1.231910420E0
1.436312308E1,5.001661491E-1,-1.122792875E0,-8.481321985E-1,1.493371435E0
1.437304708E1,8.879023281E-1,-1.322437282E0,-7.436845547E-1,1.757918549E0
1.438297008E1,1.318655595E0,-1.403834032E0,-7.876246262E-1,2.080854421E0
1.439289308E1,1.573187232E0,-1.013317210E0,-9.030018854E-1,2.077773385E0
1.440281708E1,1.472375971E0,-5.829790950E-1,-7.944272768E-1,1.771685730E0
1.441274008E1,8.323906168E-1,-1.443864655E-1,-5.375263488E-1,1.001327202E0
1.442266408E1,1.785651952E-2,2.866153085E-1,-3.645271182E-1,4.640551802E-1
1.443258708E1,-6.982733238E-1,3.559211862E-1,-5.171809620E-1,9.390110079E-1
1.444251008E1,-1.043583860E0,-7.034375846E-2,-9.558671468E-1,1.416932433E0
1.445243408E1,-9.082614559E-1,-5.835760957E-1,-1.383474028E0,1.754850511E0
1.446235708E1,-4.571519843E-1,-3.027869529E-1,-1.251407645E0,1.366268264E0
1.447228108E1,8.501120657E-2,-1.928756708E-1,-1.243180613E0,1.260922665E0
1.448220408E1,5.868946829E-1,-2.861954784E-1,-1.404103589E0,1.548502538E0
1.449212708E1,1.012569351E0,-1.816455084E-1,-1.658188498E0,1.951379224E0
1.450205108E1,9.837355614E-1,-1.092049384E-1,-1.803295925E0,2.057070142E0
1.451197408E1,3.067402554E-1,-2.207294673E-1,-1.687541521E0,1.729337291E0
1.452189808E1,-2.910089064E-1,-3.978515697E-1,-1.806606619E0,1.872645062E0
1.453182108E1,-6.792806903E-1,-5.754437882E-1,-1.831351451E0,2.036272562E0
1.454174408E1,-1.252876758E0,-7.320632136E-1,-2.073258948E0,2.530616405E0
1.455166808E1,-1.550386014E0,-8.307829249E-1,-2.245763505E0,2.852604210E0
1.456159108E1,-1.409498230E0,-1.036297937E0,-2.088693259E0,2.724562021E0
1.457151508E1,-1.153792181E0,-1.288903500E0,-1.837209776E0,2.523459608E0
1.458143808E1,-8.801869270E-1,-1.497862523E0,-1.550395662E0,2.328529122E0
1.459136108E1,-5.714776218E-1,-1.553206419E0,-1.029731514E0,1.949200821E0
1.460128508E1,-2.293620041E-1,-1.498416839E0,-7.184204900E-1,1.677494546E0
1.461120808E1,-1.691576099E-1,-1.432946734E0,-6.361910963E-1,1.576924143E0
1.462113208E1,-4.244955772E-1,-1.368458962E0,-3.969130915E-1,1.486746928E0
1.463105508E1,-7.617267233E-1,-1.380842780E0,-1.352390814E-1,1.582796258E0
1.464097808E1,-1.277000908E0,-1.531208609E0,1.432246238E-1,1.998960834E0
1.465090208E1,-1.611666296E0,-1.666388633E0,2.215153331E-1,2.328816946E0
1.466082508E1,-1.670824916E0,-2.035789406E0,6.524264753E-1,2.713255371E0
1.467074908E1,-1.546936742E0,-2.379063064E0,1.023727593E0,3.016781817E0
1.468067208E1,-1.178511870E0,-2.462408692E0,8.079308367E-1,2.846945561E0
1.469059508E1,-3.905595070E-1,-2.155251530E0,3.847538066E-1,2.223888796E0
1.470051908E1,6.764330962E-1,-1.391032138E0,-6.210444689E-2,1.548027489E0
1.471044208E1,1.700142270E0,-4.026679212E-1,-1.125583166E-1,1.750798266E0
1.472036608E1,2.547721615E0,4.078631723E-1,5.255711317E-2,2.580697588E0
1.473028908E1,2.976150321E0,8.745949423E-1,2.357006782E-1,3.110939064E0
1.474021208E1,2.734321469E0,1.032204886E0,8.730559552E-1,3.050276630E0
1.475013608E1,1.872746522E0,1.464991230E0,5.459708977E-1,2.439562063E0
1.476005908E1,1.118068909E0,1.700087599E0,6.615153873E-1,2.139621120E0
1.476998308E1,2.763391194E-1,1.435302870E0,1.221476333E0,1.904852244E0
1.477990608E1,1.761760229E-1,1.389394041E0,1.730771155E0,2.226437195E0
1.478982908E1,6.510795692E-1,1.899628803E0,1.284347935E0,2.383703801E0
1.479975308E1,3.915225434E-1,1.895980433E0,6.954122812E-1,2.057092595E0
1.480967608E1,4.077023739E-1,2.071282297E0,3.721016014E-1,2.143569729E0
1.481960008E1,5.090904620E-1,2.191108118E0,3.506066519E-1,2.276631922E0
1.482952308E1,5.946179777E-1,2.227919556E0,3.383239907E-1,2.330592030E0
1.483944608E1,5.396632138E-1,1.830234632E0,7.341337126E-1,2.044491991E0
1.484937008E1,4.345747152E-1,1.371465016E0,9.215872604E-1,1.708535792E0
1.485929308E1,3.550400108E-1,1.125801559E0,1.056912296E0,1.584470309E0
1.486921708E1,3.418364131E-1,8.996292114E-1,1.578093923E0,1.848395326E0
1.487914008E1,2.494667780E-1,7.640346193E-1,1.633337831E0,1.820377720E0
1.488906308E1,1.149176681E-1,7.737152696E-1,1.362774299E0,1.571303656E0
1.489898708E1,-5.877474993E-2,9.059450814E-1,1.135707035E0,1.453967479E0
1.490891008E1,-2.758008832E-1,1.050299972E0,8.170963472E-1,1.358985872E0
1.491883408E1,-2.975209504E-1,1.078782637E0,6.706586784E-1,1.304635488E0
1.492875708E1,-6.220414191E-2,9.692327124E-1,8.747381991E-1,1.307076250E0
1.493868008E1,2.259483996E-1,8.258353034E-1,7.923304653E-1,1.166552268E0
1.494860408E1,4.193576288E-1,6.690161955E-1,5.057174957E-1,9.376532814E-1
1.495852708E1,4.990645337E-1,5.269636461E-1,1.733313525E-1,7.461902243E-1
1.496845108E1,4.099579373E-1,2.917959416E-1,-1.852228349E-1,5.362069381E-1
1.497837408E1,3.929416627E-1,1.674993396E-2,-3.309722865E-1,5.140295370E-1
1.498829708E1,5.833960015E-1,-2.070934680E-1,-5.152250683E-1,8.054163334E-1
1.499822108E1,6.563061029E-1,-3.950425673E-1,-2.912012798E-1,8.195087040E-1
1.500814408E1,6.608485124E-1,-4.486539334E-1,2.529178047E-1,8.378415866E-1
1.501806708E1,3.603451896E-1,-3.901648200E-1,6.722654933E-1,8.567485838E-1
1.502799108E1,3.045457953E-1,-4.154443797E-1,9.578750807E-1,1.087596821E0
1.503791408E1,5.399488503E-1,-5.265058091E-1,1.186431046E0,1.405834896E0
1.504783808E1,8.310790864E-1,-5.205109513E-1,1.238579439E0,1.579779454E0
1.505776108E1,1.016765313E0,-3.310608718E-1,1.014886018E0,1.474247819E0
1.506768408E1,9.809625193E-1,-1.094090062E-1,7.520501661E-1,1.240901788E0
1.507760808E1,6.829933798E-1,8.799270183E-2,5.876171064E-1,9.052715263E-1
1.508753108E1,3.308699602E-1,2.519012663E-1,5.270545703E-1,6.713536316E-1
1.509745508E1,7.297559023E-2,5.115995023E-1,6.979523116E-1,8.684451144E-1
1.510737808E1,-2.336687708E-1,5.211991686E-1,7.948693264E-1,9.788089261E-1
1.511730108E1,-5.726149052E-1,5.364928535E-1,7.594925022E-1,1.092035381E0
1.512722508E1,-6.274802068E-1,8.259010845E-1,9.532703984E-1,1.408747126E0
1.513714821E1,-5.966592407E-1,8.292474461E-1,6.309894133E-1,1.200750272E0
1.514707221E1,-3.818477404E-1,7.088433355E-1,4.749985635E-1,9.348209489E-1
1.515699521E1,-9.969531924E-2,5.970530507E-1,2.245114464E-1,6.456135776E-1
1.516691821E1,1.079115343E-1,4.370322999E-1,2.004659414E-2,4.506040350E-1
1.517684221E1,1.538840979E-1,3.064359078E-1,-2.254288745E-1,4.103674678E-1
1.518676521E1,-5.629406869E-2,2.694388202E-1,-4.138103753E-1,4.969963045E-1
1.519668921E1,-4.583556336E-1,2.666917983E-1,-5.459960407E-1,7.611347309E-1
1.520661221E1,-9.171878153E-1,2.374750158E-1,-3.198824573E-1,9.999763288E-1
1.521653521E1,-1.068943527E0,1.195349219E-1,-7.345740080E-2,1.078111706E0
1.522645921E1,-1.035685734E0,6.158170581E-2,1.150316888E-1,1.043872375E0
1.523638221E1,-1.034981436E0,6.000295758E-2,-6.440123320E-3,1.036739313E0
1.524630621E1,-1.033005662E0,8.709106117E-2,-2.907270706E-1,1.076665120E0
1.525622921E1,-1.024566084E0,1.369575781E-1,-6.444321620E-1,1.218107487E0
1.526615221E1,-7.692213920E-1,1.981165302E-1,-6.773332751E-1,1.043902330E0
1.527607621E1,-5.254787457E-1,2.765306157E-1,-7.639369708E-1,9.675726272E-1
1.528599921E1,-2.455807185E-1,2.251499623E-1,-8.340608740E-1,8.981424922E-1
1.529592321E1,-2.283817184E-1,1.277873898E-1,-8.806631827E-1,9.187249141E-1
1.530584621E1,-5.066083190E-1,1.969810009E-2,-8.679279470E-1,1.005156170E0
1.531576921E1,-1.015404081E0,-1.192498702E-1,-8.071958417E-1,1.302624699E0
1.532569321E1,-1.400486501E0,-3.065861812E-1,-8.177056271E-1,1.650454489E0
1.533561621E1,-1.520821615E0,-4.295896715E-1,-1.029610476E0,1.886145117E0
1.534554021E1,-1.513455877E0,-4.286892003E-1,-1.285252499E0,2.031304288E0
1.535546321E1,-1.480152768E0,-2.788320798E-1,-1.376414099E0,2.040371368E0
1.536538621E1,-1.508568190E0,-7.472887784E-2,-1.214757882E0,1.938297991E0
1.537531021E1,-1.537614526E0,8.108392417E-2,-8.612808323E-1,1.764266903E0
1.538523321E1,-1.492436014E0,2.269216686E-1,-6.276793045E-1,1.634882262E0
1.539515721E1,-1.651288491E0,2.553332895E-1,-5.374064809E-1,1.755207821E0
1.540508021E1,-1.941691041E0,1.203017843E-1,-2.844892609E-1,1.966105480E0
1.541500321E1,-1.970842920E0,-1.349595845E-2,3.881440222E-2,1.971271294E0
1.542492721E1,-1.797044667E0,-1.077010345E-1,4.137244213E-1,1.847197051E0
1.543485021E1,-1.576224276E0,-2.180070037E-1,9.650420129E-1,1.860998685E0
1.544477421E1,-1.613163768E0,-5.352690312E-1,2.195217249E0,2.776290519E0
1.545469721E1,-1.752877724E0,-6.952155223E-1,2.518609790E0,3.146315338E0
1.546462021E1,-1.813328870E0,-5.266864881E-1,2.140276226E0,2.854179842E0
1.547454421E1,-1.899756857E0,-3.987359610E-1,1.431995977E0,2.412193807E0
1.548446721E1,-1.909801789E0,-5.198110396E-1,1.219087161E0,2.324590264E0
1.549439021E1,-1.652908755E0,-6.449478865E-1,9.232426071E-1,2.000110507E0
1.550431421E1,-1.485970748E0,-5.780051610E-1,5.806051254E-1,1.696850418E0
1.551423721E1,-1.279673086E0,-3.759823984E-1,4.370138812E-1,1.403533791E0
1.552416121E1,-8.721546069E-1,-1.473910573E-1,2.120574617E-1,9.095857019E-1
1.553408421E1,-3.874984896E-1,-4.880553961E-2,4.100126088E-2,3.927062051E-1
1.554400721E1,-4.652103245E-2,-1.369669336E-1,3.557141948E-1,3.840009580E-1
1.555393121E1,3.076951057E-1,-2.941427216E-1,6.287961227E-1,7.593291662E-1
1.556385421E1,4.998600474E-1,-4.563485768E-1,4.983365554E-1,8.405078304E-1
1.557377821E1,3.937409770E-1,-6.375885808E-1,2.014699084E-1,7.759776282E-1
1.558370121E1,3.131447107E-2,-8.364035609E-1,-2.066686678E-1,8.621272824E-1
1.559362421E1,-4.012259978E-1,-8.732044744E-1,-3.833826345E-1,1.034625826E0
1.560354821E1,-6.727113435E-1,-8.707711557E-1,-3.272768462E-1,1.147995249E0
1.561347121E1,-5.541242552E-1,-8.407196832E-1,1.161449987E-1,1.013584203E0
1.562339521E1,-1.661983341E-1,-6.330306762E-1,4.839752090E-1,8.139912323E-1
1.563331821E1,2.803327677E-1,-2.799883667E-1,7.313820130E-1,8.318050222E-1
1.564324121E1,6.665700129E-1,3.781160474E-2,5.692650354E-1,8.773870184E-1
1.565316521E1,8.346909115E-1,2.333825496E-1,1.285463583E-1,8.761851964E-1
1.566308821E1,8.756936342E-1,3.337321723E-1,-4.137478101E-1,1.024404097E0
1.567301221E1,8.246474415E-1,4.076643670E-1,-4.213316488E-1,1.011807293E0
1.568293521E1,7.949716526E-1,4.143477345E-1,-5.149865019E-1,1.033864145E0
1.569285821E1,8.520556802E-1,4.078377369E-1,-4.979114628E-1,1.067823172E0
1.570278221E1,9.693443942E-1,4.365917122E-1,-6.269361234E-1,1.234216262E0
1.571270521E1,1.140559347E0,4.305147010E-1,-4.902890325E-1,1.314002233E0
1.572262921E1,1.337259389E0,3.808785644E-1,-7.867247397E-1,1.597581601E0
1.573255221E1,1.423936760E0,3.417770639E-1,-1.080096506E0,1.819619718E0
1.574247521E1,1.372837358E0,3.086093178E-1,-1.060012490E0,1.761689132E0
1.575239921E1,1.296748125E0,2.220029908E-1,-9.522424579E-1,1.624071035E0
1.576232221E1,1.318193081E0,2.171939483E-1,-8.227541131E-1,1.568990293E0
1.577224521E1,1.330798216E0,3.005059540E-1,-7.072224873E-1,1.536714471E0
1.578216921E1,1.213415362E0,4.080336186E-1,-6.802773482E-1,1.449705330E0
1.579209221E1,9.281446204E-1,4.579521757E-1,-7.059653360E-1,1.252820692E0
1.580201621E1,5.701222372E-1,4.918476078E-1,-7.094181168E-1,1.034518003E0
1.581193921E1,4.152806577E-1,5.214696023E-1,-7.588843918E-1,1.010096080E0
1.582186221E1,3.858010429E-1,6.419500190E-1,-8.712257767E-1,1.148902357E0
1.583178621E1,3.977027580E-1,6.935978901E-1,-1.008055885E0,1.286632109E0
1.584170921E1,4.344089466E-1,6.561593378E-1,-1.203588531E0,1.438013060E0
1.585163321E1,5.353836367E-1,6.363323066E-1,-1.387122690E0,1.617301394E0
1.586155621E1,6.218022680E-1,6.227965870E-1,-1.490034855E0,1.730525215E0
1.587147921E1,6.115620393E-1,5.940396881E-1,-1.390614647E0,1.631165343E0
1.588140321E1,6.638390708E-1,5.719316581E-1,-1.206571196E0,1.491174766E0
1.589132621E1,7.260470134E-1,6.136228904E-1,-1.175588554E0,1.511848460E0
1.590125021E1,6.622690934E-1,6.552506804E-1,-1.209887736E0,1.527017400E0
1.591117321E1,2.417803207E-1,3.496108711E-1,-1.495242970E0,1.554489313E0
1.592109621E1,5.710975528E-2,5.188485879E-1,-1.592647058E0,1.676004186E0
1.593102021E1,-3.968683603E-1,5.142348424E-1,-1.371379062E0,1.517439455E0
1.594094321E1,-7.533485404E-1,4.195546800E-1,-1.253897390E0,1.521781462E0
1.595086721E1,-7.147317740E-1,3.944251013E-1,-1.147213771E0,1.408017083E0
1.596079021E1,-5.928763846E-1,2.973142514E-1,-9.180058408E-1,1.132533838E0
1.597071321E1,-5.900972030E-1,1.827240273E-1,-1.133083389E0,1.290535062E0
1.598063721E1,-7.786646453E-1,1.832239643E-1,-1.737008965E0,1.912351902E0
1.599056021E1,-1.168892323E0,-2.755441904E-2,-1.316908740E0,1.761055688E0
1.600048321E1,-1.602576799E0,-4.106958559E-1,-1.218798308E0,2.054846174E0
1.601040721E1,-1.932843619E0,-7.104545358E-1,-1.160595124E0,2.363812841E0
1.602033021E1,-2.105529439E0,-7.870676789E-1,-9.371320832E-1,2.435353422E0
1.603025421E1,-2.186373627E0,-9.226280648E-1,-6.418634802E-1,2.458345157E0
1.604017721E1,-2.298175607E0,-1.074343430E0,-5.299214602E-1,2.591648448E0
1.605010021E1,-2.319605944E0,-1.171419782E0,-5.298600644E-1,2.652083658E0
1.606002421E1,-2.286927026E0,-1.279187182E0,-4.861983204E-1,2.665097348E0
1.606994721E1,-2.207025408E0,-1.394895979E0,-3.771559346E-1,2.637980770E0
1.607987121E1,-2.083819605E0,-1.442615690E0,-1.988778377E-1,2.542242429E0
1.608979421E1,-1.883493704E0,-1.409405844E0,-3.240363193E-1,2.374652165E0
1.609971721E1,-1.403053137E0,-1.343922291E0,-7.096186763E-1,2.068391620E0
1.610964121E1,-1.120991055E0,-1.034599321E0,-1.024510535E0,1.837563206E0
1.611956421E1,-7.525012788E-1,-6.861918068E-1,-1.329419442E0,1.674656211E0
1.612948821E1,-4.919639674E-1,-5.126400143E-1,-1.167079686E0,1.366346707E0
1.613941142E1,-6.683624768E-1,-8.310203218E-1,-8.583946466E-2,1.069893261E0
1.614933442E1,-1.368808041E0,-8.830886078E-1,1.697403435E0,2.352585676E0
1.615925842E1,-1.757314591E0,-7.424624866E-1,2.857110951E0,3.435474945E0
1.616918142E1,-1.559208586E0,-8.220460153E-1,2.529896085E0,3.083385358E0
1.617910442E1,-1.093304197E0,-3.670297265E-1,1.959881729E0,2.274018751E0
1.618902842E1,-7.733486491E-1,6.897036445E-1,1.224221016E0,1.603894120E0
1.619895142E1,-7.197209108E-1,1.438462413E0,1.323107081E0,2.082734897E0
1.620887542E1,-8.530087763E-1,6.036776537E-1,7.546018910E-1,1.288982039E0
1.621879842E1,-1.175800808E0,-4.283231646E-1,-9.199032623E-1,1.553122753E0
1.622872142E1,-1.445078537E0,-1.012484567E0,-6.330441248E-1,1.874599115E0
1.623864542E1,2.294505894E-1,2.496106195E-1,1.035051603E0,1.089167047E0
1.624856842E1,3.332926955E0,7.300318909E-1,2.235894135E0,4.079285628E0
1.625849242E1,5.270819353E0,-3.630945504E-2,3.237134068E0,6.185619775E0
1.626841542E1,4.991237660E0,-5.037849909E-1,5.237312468E0,7.252288921E0
1.627833842E1,4.086369343E0,-1.608555577E0,6.519126220E0,7.860335370E0
1.628826242E1,3.169096159E0,-1.824358765E0,6.463592874E0,7.426270141E0
1.629818542E1,2.224658564E0,-8.482339400E-1,5.294053264E0,5.804791685E0
1.630810942E1,1.404408814E0,1.468674392E-1,2.888436824E0,3.215120752E0
