"Time (s)","Linear Acceleration x (m/s^2)","Linear Acceleration y (m/s^2)","Linear Acceleration z (m/s^2)","Absolute acceleration (m/s^2)"
4.708499997E-3,-4.343212384E-1,2.723843551E-1,-2.169164979E-1,5.566695089E-1
1.463150000E-2,-4.385335726E-1,2.003367180E-1,7.139684200E-2,4.873848622E-1
2.455450001E-2,-2.711225259E-1,9.480500042E-2,1.514879090E-1,3.247214171E-1
3.447750001E-2,-2.685930204E-1,-3.995519400E-2,2.672645330E-2,2.728606448E-1
4.440050002E-2,-5.054999793E-1,-7.861581445E-3,-1.251005942E-1,5.208091706E-1
5.432350002E-2,-7.177524456E-1,9.055173576E-2,-3.457183796E-1,8.018038339E-1
6.424650003E-2,-7.185377267E-1,1.050042987E-1,-6.474300295E-1,9.728761538E-1
7.416950003E-2,-6.028204519E-1,1.241410661E-1,-7.020693362E-1,9.336513558E-1
8.409250004E-2,-1.552888915E-1,1.989988750E-1,-3.462726957E-1,4.285090102E-1
9.401549993E-2,2.852105150E-1,2.340932786E-1,1.716485238E-1,4.069495260E-1
1.039384999E-1,5.098351049E-1,8.246854484E-2,7.441435611E-1,9.058049098E-1
1.138614999E-1,6.211909416E-1,-2.061792558E-1,7.890595329E-1,1.025184382E0
1.237844999E-1,4.913690132E-1,-3.665350521E-1,4.235997838E-1,7.451363824E-1
1.337074999E-1,1.636194196E-1,-4.502157247E-1,-3.641792089E-1,6.017408158E-1
1.436305000E-1,-1.211508000E-1,-2.259311503E-1,-1.131613984E0,1.160289882E0
1.535535000E-1,-2.513832030E-1,3.120015800E-2,-1.553847858E0,1.574360229E0
1.634765000E-1,-3.189489493E-1,1.138844651E-1,-1.629198588E0,1.664027085E0
1.733995000E-1,-3.069019309E-1,1.022090372E-1,-1.592135426E0,1.624663257E0
1.833225000E-1,-1.983919340E-1,9.909656435E-2,-1.262844214E0,1.282168085E0
1.932455000E-1,1.898821887E-1,7.282122374E-3,-4.772105652E-1,5.136518261E-1
2.031685000E-1,7.580796687E-1,-2.355030423E-1,5.058145595E-1,9.412729868E-1
2.130915000E-1,1.166923273E0,-5.577258477E-1,1.014504780E0,1.643772488E0
2.230140000E-1,1.170013015E0,-7.383472162E-1,8.015620494E-1,1.598933640E0
2.329370000E-1,8.922536798E-1,-4.957614416E-1,2.102477485E-1,1.042161289E0
2.428600000E-1,5.498946717E-1,-1.377954841E-1,-5.697988862E-1,8.037677004E-1
2.527830000E-1,5.169244154E-1,1.018789619E-2,-1.065567929E0,1.184377328E0
2.627060000E-1,1.258757888E-1,-3.691557741E-1,-7.740123081E-1,8.667270348E-1
2.726290000E-1,-5.668752053E-1,-1.121355921E0,7.717447579E-2,1.258865561E0
2.825520000E-1,-6.170771331E-2,-1.964265679E0,1.194972074E-1,1.968864414E0
2.924750000E-1,5.369294943E-1,-1.359442556E0,-2.970941037E-1,1.491523466E0
3.023980000E-1,9.278360336E-1,-2.258484122E-1,-1.009960324E-1,9.602538253E-1
3.123210000E-1,1.777579286E0,2.378787661E-1,-4.978085518E-2,1.794116094E0
3.222439999E-1,3.470081000E0,-1.385322332E-1,2.073855364E-1,3.479031774E0
3.321669999E-1,4.370724995E0,-7.890311739E-1,3.499693054E-1,4.455141490E0
3.420899999E-1,3.628590830E0,-9.015491447E-1,2.135297906E-1,3.745004305E0
3.520129999E-1,2.607277260E0,-7.430615339E-1,2.848471105E-2,2.711244462E0
3.619359999E-1,1.647966396E0,-7.742356718E-1,-1.722098565E-1,1.828904139E0
3.718589999E-1,4.695083204E-1,-1.135071735E0,-2.366853493E-1,1.250937993E0
3.817820000E-1,3.811223933E-1,-1.180947527E0,5.476513875E-1,1.356397207E0
3.917050000E-1,1.031299737E0,-1.512197556E0,5.213722461E-1,1.903194582E0
4.016280000E-1,1.236225350E0,-2.344036196E0,5.779329479E-2,2.650678945E0
4.115510000E-1,5.857834196E-1,-2.898024796E0,3.895473540E-2,2.956891510E0
4.214740000E-1,5.421830714E-2,-2.989436365E0,2.898476493E-1,3.003944251E0
4.313970000E-1,-4.386142641E-1,-3.191581042E0,4.874250662E-1,3.258244192E0
4.413200000E-1,-6.010130775E-1,-3.449287424E0,5.556328368E-1,3.545070987E0
4.512430000E-1,-5.942542809E-1,-3.933261171E0,9.239746785E-1,4.083798574E0
4.611660000E-1,-1.093194854E0,-4.721970163E0,1.764761020E0,5.158144886E0
4.710890000E-1,-2.141708794E0,-5.101912004E0,2.427521279E0,6.042291139E0
4.810120000E-1,-2.961051056E0,-4.834705943E0,2.824982840E0,6.334250781E0
4.909350000E-1,-3.109392579E0,-4.055226488E0,2.781371967E0,5.818007743E0
5.008580000E-1,-2.858023701E0,-3.406981941E0,2.592442582E0,5.147483265E0
5.107810000E-1,-2.390662186E0,-3.264285614E0,2.520474174E0,4.766929443E0
5.207040000E-1,-1.897640750E0,-3.228658821E0,2.361629883E0,4.427479407E0
5.306270000E-1,-1.710108265E0,-2.879505495E0,2.059933436E0,3.931837730E0
5.405500000E-1,-1.831726842E0,-2.467478228E0,1.530759835E0,3.433205164E0
5.504729999E-1,-1.407569818E0,-2.552608133E0,1.204003537E0,3.153836646E0
5.603959999E-1,-6.011955106E-1,-2.818077278E0,1.448937700E0,3.225277670E0
5.703189999E-1,2.850307131E-1,-2.124528505E0,2.199119096E0,3.070991480E0
5.802419999E-1,1.287615944E0,-8.649558073E-1,2.520959201E0,2.959955854E0
5.901649999E-1,1.952044414E0,4.900262001E-1,2.618880183E0,3.302898194E0
6.000879999E-1,2.464999008E0,1.895851209E0,2.549705282E0,4.021376499E0
6.100110000E-1,2.797409125E0,3.005672913E0,2.109801707E0,4.616365531E0
6.199340000E-1,3.631171206E0,3.850356424E0,8.799374702E-1,5.365159725E0
6.298570000E-1,4.294936602E0,5.089003106E0,-5.448955947E-1,6.681417831E0
6.397800000E-1,3.841010234E0,6.042468801E0,-1.700529941E0,7.359116177E0
6.497030000E-1,3.228347749E0,5.974105495E0,-2.532258360E0,7.247378702E0
6.596260000E-1,2.774516106E0,5.616669880E0,-2.917840717E0,6.910768019E0
6.695490000E-1,2.103163948E0,5.584559895E0,-3.582296669E0,6.960133421E0
6.794720000E-1,9.179035145E-1,5.258035585E0,-4.339127519E0,6.878772616E0
6.893950000E-1,-4.656547129E-2,4.283614054E0,-4.496231679E0,6.210283167E0
6.993180000E-1,-7.641924942E-1,3.579440597E0,-4.003925942E0,5.424740372E0
7.092410000E-1,-1.142821927E0,3.388580754E0,-3.275771007E0,4.849659490E0
7.191640000E-1,-1.207927165E0,3.229404341E0,-3.139587600E0,4.663169602E0
7.290870000E-1,-1.204294290E0,3.024257703E0,-3.092839696E0,4.490224580E0
7.390100000E-1,-1.284561358E0,2.659987570E0,-2.870382961E0,4.118826301E0
7.489330000E-1,-1.465478888E0,2.280019125E0,-3.007343463E0,4.048484937E0
7.588560000E-1,-1.649508891E0,1.992061150E0,-2.870599308E0,3.863874686E0
7.687790000E-1,-1.386561357E0,1.672945555E0,-2.170154328E0,3.070972002E0
7.787019999E-1,-6.325488657E-1,1.460281883E0,-1.228463756E0,2.010389128E0
7.886249999E-1,-7.712465751E-1,9.217017196E-1,-7.631937897E-1,1.423664321E0
7.985479999E-1,-1.252363665E0,1.165863904E-1,-1.560792596E0,2.004515070E0
8.084709999E-1,-1.773788536E0,-3.822756104E-1,-3.231896424E0,3.706428862E0
8.183939999E-1,-1.520797057E0,-3.286288686E-1,-4.439445859E0,4.704200268E0
8.283169999E-1,-2.446714765E-1,-3.010721107E-1,-6.130211535E0,6.142475234E0
8.382400000E-1,1.006009945E0,8.590232223E-2,-6.728040218E0,6.803378602E0
8.481630000E-1,1.934493411E0,7.905391708E-1,-4.737715546E0,5.178143058E0
8.580860000E-1,2.567949180E0,6.665252817E-1,-2.541043802E0,3.673625259E0
8.680090000E-1,2.602928978E0,5.298018846E-1,-1.062206365E0,2.860806121E0
8.779320000E-1,2.475155037E0,5.119032651E-1,8.042625859E-2,2.528815097E0
8.878550000E-1,2.229356217E0,3.181661533E-1,2.137123699E-1,2.262063620E0
8.977780000E-1,1.997946226E0,2.949335575E-3,7.466792062E-2,1.999343172E0
9.077010000E-1,1.165310318E0,3.514512822E-2,-2.262770131E-1,1.187596146E0
9.176240000E-1,4.458501935E-1,-4.888710827E-1,-9.449648671E-1,1.153575282E0
9.275470000E-1,2.209165782E-1,-6.108972108E-1,-8.679921202E-1,1.084163206E0
9.374700000E-1,2.824567688E-1,-4.483260508E-1,-6.304348049E-1,8.235448483E-1
9.473930000E-1,1.516241491E-2,-8.355266248E-1,-7.363340199E-1,1.113787425E0
9.573160000E-1,8.036594456E-1,-8.753011398E-1,-4.226311925E-1,1.261204866E0
9.672390000E-1,7.601327723E-1,1.123765559E0,1.366999497E0,1.925964301E0
9.771620000E-1,9.020949823E-1,9.980723494E-1,2.151681805E-1,1.362432060E0
9.870850000E-1,8.106936461E-1,3.667237709E-1,-2.910251324E-1,9.361656582E-1
9.970080000E-1,5.981087655E-1,1.356827389E-1,-3.736825423E-1,7.181800216E-1
1.006931000E0,-9.827941597E-2,-2.837226909E-1,-1.754164696E-5,3.002622342E-1
1.016854000E0,-1.008926536E0,-7.575244756E-1,-3.825403431E-1,1.318375212E0
1.026777000E0,-1.999868206E0,-1.057789305E0,-6.468469159E-1,2.353041008E0
1.036700000E0,-2.971614636E0,-1.508702383E0,-3.908208776E-1,3.355505534E0
1.046623000E0,-1.382965320E0,-1.294930518E0,-5.689641961E-1,1.978170462E0
1.056546000E0,-2.774076980E-1,-7.764280853E-1,-4.614178205E-1,9.448290891E-1
1.066469000E0,-2.936021465E-1,-1.050175426E0,-3.123173296E-1,1.134289540E0
1.076392000E0,-2.466548520E-1,-1.403234108E0,-5.543229143E-1,1.528783330E0
1.086315000E0,-7.876059151E-1,-1.612414740E0,-1.375259274E0,2.260872053E0
1.096238000E0,-8.908086866E-1,-1.911551861E0,-1.264348264E0,2.458891451E0
1.106161000E0,-4.329857343E-1,-1.887514249E0,-9.338178813E-1,2.149930818E0
1.116084000E0,-3.208063173E-1,-1.993186300E0,-4.827427621E-1,2.075752609E0
1.126007000E0,-2.896505982E-1,-1.486075413E0,-5.726631448E-2,1.515122778E0
1.135930000E0,4.133689106E-2,-7.755477870E-1,-2.079642646E-1,8.040101018E-1
1.145853000E0,5.930596948E-2,-3.379451277E-1,-8.422401054E-1,9.094462615E-1
1.155776000E0,-1.260628120E0,8.646252204E-2,-1.661845201E0,2.087675381E0
1.165699000E0,-1.206145518E0,-1.451699559E-1,-1.609240286E0,2.016312383E0
1.175622000E0,-2.069982169E0,-2.737975905E-1,-1.848694292E0,2.788810120E0
1.185545000E0,-4.058455905E0,-1.125301038E0,-1.780180128E0,4.572352573E0
1.195468000E0,-5.167419530E0,-2.064543673E0,-9.412835332E-1,5.643631798E0
1.205391000E0,-5.945966354E0,-2.362403178E0,-3.922429204E-2,6.398203123E0
1.215314000E0,-5.687071525E0,-2.209098539E0,9.400475049E-1,6.173053394E0
1.225237625E0,-4.920144289E0,-1.560032166E0,2.108166826E0,5.575471957E0
1.235160625E0,-4.842230140E0,-7.316278884E-1,1.634842905E0,5.162865815E0
1.245083625E0,-3.560245650E0,-5.248757516E-1,-3.531831544E-2,3.598901364E0
1.255006625E0,-2.669431116E0,-9.615512252E-2,-1.098220536E0,2.888112989E0
1.264929625E0,-1.620369877E0,3.085482144E-1,-1.057677112E0,1.959459469E0
1.274852625E0,1.408086712E0,-5.021164879E-1,2.850155469E-1,1.521861695E0
1.284775625E0,4.676611265E0,-9.294061571E-1,2.709659375E0,5.484226715E0
1.294698625E0,5.829467599E0,-1.370537648E-1,5.100446692E0,7.747001528E0
1.304621625E0,6.718996915E0,5.992922419E-1,5.772061390E0,8.878105846E0
1.314544625E0,8.150865422E0,6.638250375E-1,4.978037571E0,9.573825195E0
1.324467625E0,8.957043264E0,4.152727640E-1,3.073580722E0,9.478817118E0
1.334390625E0,8.936268107E0,7.070014626E-1,3.498786736E-1,8.971017436E0
1.344313625E0,7.536677983E0,1.276296611E0,-2.660565568E0,8.093766565E0
1.354236625E0,6.689434562E0,1.539888508E0,-4.041411856E0,7.965726656E0
1.364159625E0,6.140680974E0,1.687457321E0,-3.751111633E0,7.390961610E0
1.374082625E0,5.288955662E0,9.652016419E-1,-2.934307646E0,6.124934903E0
1.384005625E0,3.784460058E0,-1.061168484E0,-2.150947979E0,4.480490340E0
1.393928625E0,1.261517481E0,-1.054000382E0,-8.485866002E-1,1.849984427E0
1.403851625E0,-2.000540051E0,7.155328426E-1,1.153937484E0,2.417792270E0
1.413774625E0,-4.137256492E0,1.105077565E0,1.554834284E0,4.555831138E0
1.423697625E0,-5.287217284E0,6.027230957E-1,7.864101595E-1,5.379254844E0
1.433620625E0,-5.313880003E0,-6.930345109E-1,-2.013582265E-1,5.362663765E0
1.443543625E0,-4.468517631E0,-2.029137613E0,-4.301752701E-2,4.907840643E0
1.453466625E0,-2.884646074E0,-2.293237633E0,2.260194433E-1,3.692046398E0
1.463389625E0,-9.120071822E-1,-1.083413339E0,7.822808558E-1,1.617870483E0
1.473312625E0,1.202292203E0,-9.821217299E-2,1.323290245E0,1.790600247E0
1.483235625E0,2.805484130E0,4.708198509E-1,2.654897569E-1,2.857078463E0
1.493158625E0,3.802064855E0,1.877213502E-1,-6.361479731E-1,3.859484513E0
1.503081625E0,2.670773052E0,-8.156728426E-1,-6.750858977E-2,2.793368628E0
1.513004625E0,5.014010811E-1,-7.767955828E-1,1.161736500E0,1.484737727E0
1.522927625E0,-1.020282998E0,-5.472952920E-1,1.832944817E0,2.167993597E0
1.532850625E0,-7.463391906E-1,-3.508669992E-1,1.295828943E0,1.536002112E0
1.542773625E0,1.650809312E-1,-1.187950299E0,3.126476973E-1,1.239445928E0
1.552696625E0,9.156862503E-1,-1.449115017E0,4.327781582E-1,1.767968488E0
1.562619625E0,9.646654522E-1,-7.727813230E-1,1.206004454E0,1.726909712E0
1.572542625E0,-3.181165981E-1,-3.900617628E-1,1.412243352E0,1.499259028E0
1.582465625E0,-2.044973627E0,-2.595557101E-1,9.807205908E-1,2.282783209E0
1.592388625E0,-2.666213393E0,-2.239563994E-1,9.931729674E-2,2.677445471E0
1.602311625E0,-2.377761474E0,4.564935878E-1,-9.554689515E-1,2.602893955E0
1.612233625E0,-2.347800926E0,1.261289147E0,-1.330951998E0,2.979001967E0
1.622156625E0,-2.757952698E0,8.369226475E-1,-1.202861137E0,3.123078212E0
1.632080625E0,-3.846132395E0,-6.564288944E-1,-9.336722857E-1,4.011904440E0
1.642002625E0,-3.939573240E0,-2.057415918E0,-3.894808419E-1,4.461489986E0
1.651925625E0,-3.597759631E0,-3.411009211E0,-3.761022663E-1,4.971952445E0
1.661848625E0,-4.566634494E0,-4.370724118E0,-7.048257136E-1,6.360358418E0
1.671771625E0,-7.423853619E0,-4.004617960E0,-3.091457999E-1,8.440742780E0
1.681694625E0,-1.007134949E1,-2.883409388E0,8.055457574E-1,1.050690412E1
1.691617625E0,-1.213797886E1,-2.141945606E0,7.047181249E-1,1.234565063E1
1.701540625E0,-1.366324846E1,-1.011854017E0,8.686136793E-1,1.372817164E1
1.711463625E0,-1.241524565E1,-4.608045937E-1,7.555315252E-1,1.244674629E1
1.721386625E0,-9.335034181E0,-1.907996607E0,4.733986922E-1,9.539780948E0
1.731309625E0,-6.492223765E0,-3.219831864E0,5.985256720E-1,7.271486755E0
1.741232625E0,-3.559770271E0,-3.528681503E0,9.149506706E-1,5.095163615E0
1.751155625E0,3.169939327E-1,-2.825784785E0,1.381913990E0,3.161523538E0
1.761078625E0,4.588795441E0,-1.683197624E0,1.424960607E0,5.091238609E0
1.771001625E0,9.212736157E0,-9.190124390E-1,3.400360554E-1,9.264702687E0
1.780924625E0,1.516087709E1,3.409818426E-1,-3.709067813E0,1.561171505E1
1.790847625E0,1.760780236E1,2.696862159E0,-4.027462739E0,1.826275514E1
1.800770625E0,1.785917883E1,4.282900693E0,-2.291839564E-1,1.836698212E1
1.810693625E0,1.920909978E1,4.593389014E0,1.722552894E0,1.982563809E1
1.820616625E0,1.934196957E1,9.710915422E-1,8.480579388E-1,1.938489123E1
1.830539625E0,1.600593892E1,-2.462040609E0,-8.644617176E-1,1.621724448E1
1.840462625E0,1.146822124E1,-1.107602101E0,-1.635884879E0,1.163713883E1
1.850385625E0,6.611525676E0,1.370811005E0,-1.788697182E0,6.985043463E0
1.860308625E0,4.532416003E0,5.624436736E-1,-1.850014009E0,4.927645436E0
1.870231625E0,2.964354733E0,3.660544109E-1,-1.535615655E0,3.358498214E0
1.880154625E0,2.620823212E0,2.895383316E-1,-2.026442631E0,3.325509960E0
1.890077625E0,2.486379937E0,-1.744692206E-1,-1.977443403E0,3.181635917E0
1.900000625E0,4.620516586E-1,-2.898593438E-1,-1.960171020E0,2.034645080E0
1.909923625E0,-2.353040616E0,-9.440614723E-1,-2.461987107E0,3.534039151E0
1.919846625E0,-4.743050838E0,-2.053995735E0,-2.136880163E0,5.593003358E0
1.929769625E0,-7.595650662E0,-2.716497401E0,-9.343933205E-1,8.120736296E0
1.939692625E0,-8.927994297E0,-2.835358139E0,3.314755856E-1,9.373271254E0
1.949615625E0,-8.147081689E0,-2.305215801E0,1.212445674E0,8.553302546E0
1.959538625E0,-7.158816290E0,-2.168388031E0,1.964767370E0,7.733748648E0
1.969461625E0,-5.628130422E0,-2.066792220E0,2.261060990E0,6.407798291E0
1.979384625E0,-4.236342824E0,-1.591823624E0,1.973906568E0,4.937287728E0
1.989307625E0,-3.764321077E0,-2.075709516E0,5.631726752E-1,4.335417700E0
1.999230625E0,-3.516519002E0,-2.085458725E0,-1.136097775E0,4.243319707E0
2.009153625E0,-2.810125650E0,-5.613129683E-2,-1.363269705E0,3.123853578E0
2.019076625E0,-9.064494038E-1,3.259838806E-1,-7.973695958E-1,1.250485619E0
2.028999625E0,2.081878914E0,-3.589225620E-1,-1.250123012E-1,2.116287620E0
2.038922625E0,4.906015077E0,-2.236676931E-1,1.236994259E0,5.064500564E0
2.048845625E0,5.936068772E0,6.558171295E-1,2.109909296E0,6.333934465E0
2.058768625E0,6.055534405E0,6.044912572E-1,2.068140296E0,6.427449797E0
2.068691625E0,6.525592071E0,-2.003034254E-1,9.389126334E-1,6.595834312E0
2.078614625E0,7.117661832E0,1.626493666E-1,2.176845297E-3,7.119520315E0
2.088537625E0,6.542480584E0,-5.801019725E-1,-1.273689630E0,6.690504896E0
2.098460625E0,5.279841022E0,-1.931800184E0,-2.791868888E0,6.277189264E0
2.108383625E0,3.303380975E0,-2.777444392E0,-3.463655494E0,5.533844287E0
2.118306625E0,8.770823479E-1,-2.921793728E0,-2.453340830E0,3.914720074E0
2.128229625E0,-1.581236216E0,-4.279817164E0,1.028485472E0,4.677063747E0
2.138152625E0,-2.683877247E0,-3.864697305E0,3.901159372E0,6.112129480E0
2.148075625E0,-3.110180783E0,-3.112267070E0,4.665940096E0,6.413300851E0
2.157998625E0,-5.048112942E0,-3.101117891E0,4.235831777E0,7.283038328E0
2.167921625E0,-9.459146011E0,-2.943678394E0,3.283800988E0,1.043666780E1
2.177844625E0,-1.394685128E1,-3.693513050E0,2.292068775E0,1.460856867E1
2.187767625E0,-1.570272219E1,-3.893938353E0,1.906643562E0,1.629028943E1
2.197690625E0,-1.475434942E1,-3.225411862E0,1.656823612E0,1.519339241E1
2.207613625E0,-1.376071219E1,-2.348127347E0,1.954561348E0,1.409578703E1
2.217536625E0,-1.118093818E1,-2.462625331E0,1.637957132E0,1.156550067E1
2.227458875E0,-9.874025842E0,-2.733352877E0,1.273679544E0,1.032423672E1
2.237381875E0,-1.087295598E1,-2.876367879E0,1.476856108E0,1.134353419E1
2.247304875E0,-1.137242514E1,-3.405838811E0,2.354710581E0,1.210274570E1
2.257227875E0,-8.702198217E0,-4.537306615E0,3.094831257E0,1.029045119E1
2.267150875E0,-3.238688550E0,-5.175974007E0,3.610415637E0,7.093300467E0
2.277073875E0,3.995252182E0,-3.934587319E0,3.867106065E0,6.811572997E0
2.286996875E0,1.100425871E1,-6.566700920E-1,3.693315122E0,1.162606993E1
2.296919875E0,1.516502394E1,2.816963676E0,3.179746570E0,1.574877848E1
2.306842875E0,1.572111403E1,1.012154316E1,2.843704163E0,1.891258088E1
2.316765875E0,1.632558515E1,1.445683841E1,2.181630366E0,2.191539227E1
2.326688875E0,1.671881625E1,1.234983752E1,7.871184035E-1,2.080040526E1
2.336611875E0,1.773974828E1,4.203782896E0,-2.353427117E0,1.838230342E1
2.346534875E0,1.783615484E1,-4.083828143E0,-4.417884836E0,1.882349006E1
2.356457875E0,1.693331784E1,-7.998358344E0,-4.328045876E0,1.922089932E1
2.366380875E0,1.465383345E1,-8.273005571E0,-3.381049540E0,1.716417641E1
2.376303875E0,1.092600893E1,-6.509485331E0,-2.941603217E0,1.305389214E1
2.386226875E0,5.244926713E0,-2.357809020E0,-3.273623325E0,6.617033268E0
2.396149875E0,5.470812839E-1,1.434274929E0,-3.162373030E0,3.515258979E0
2.406072875E0,-1.675832471E0,1.130430215E0,-3.743745310E0,4.254634637E0
2.415995875E0,-3.115765459E0,4.144699413E-1,-3.922111115E0,5.026204863E0
2.425918875E0,-5.271480673E0,1.365494424E-1,-3.837719421E0,6.521904982E0
2.435841875E0,-7.397483845E0,5.106987387E-1,-2.797573432E0,7.925275866E0
2.445764875E0,-9.406870733E0,8.657491283E-1,-9.244167280E-1,9.491748250E0
2.455687875E0,-1.014383625E1,9.948236364E-1,1.371068136E0,1.028430434E1
2.465610875E0,-9.664769197E0,-1.281863160E-1,2.652747256E0,1.002303663E1
2.475533875E0,-9.235906919E0,-1.616206513E0,3.212558513E0,9.911338573E0
2.485456875E0,-9.456200184E0,-1.137520257E0,3.039834101E0,9.997713019E0
2.495379875E0,-8.610253674E0,-5.534008084E-1,2.469889619E0,8.974579407E0
2.505302875E0,-6.078157282E0,-6.471115024E-1,3.147349194E0,6.875213174E0
2.515225875E0,-2.961320613E0,-1.780125310E0,3.324392359E0,4.794773243E0
2.525148875E0,1.039623833E0,-3.430384253E0,3.438188531E0,4.966839459E0
2.535071875E0,4.017213739E0,-2.914922957E0,4.074229939E0,6.421380822E0
2.544994875E0,5.179584662E0,-3.036799396E0,2.667151287E0,6.569927232E0
2.554917875E0,5.940809110E0,-2.196315064E0,3.490401828E0,7.231868200E0
2.564840875E0,5.319826621E0,1.522074088E-1,4.258058213E0,6.815774506E0
2.574763875E0,4.227756187E0,7.686200058E-1,2.819617435E0,5.139546825E0
2.584686875E0,2.697431678E0,-2.889138490E-2,1.685044760E0,3.180620727E0
2.594609875E0,-3.748451149E-1,-1.239499791E0,4.430550782E-1,1.368636692E0
2.604532875E0,-4.190117660E0,-1.696131373E0,-1.463664497E0,4.751448348E0
2.614455875E0,-5.652252526E0,-2.012263864E0,-3.363040701E0,6.878023497E0
2.624378875E0,-7.167077821E0,-1.828331656E0,-4.383913098E0,8.598168130E0
2.634301875E0,-9.349742267E0,9.413695604E-2,-4.617288923E0,1.042813019E1
2.644224875E0,-8.069035978E0,-4.686234905E-1,-4.555839072E0,9.278179738E0
2.654147875E0,-4.721997938E0,-3.054143407E0,-2.852223848E0,6.305571929E0
2.664070875E0,-1.875180425E0,-4.527387983E0,1.050458139E-1,4.901487345E0
2.673993875E0,-2.638696981E0,-3.748007053E0,2.132841930E0,5.055619975E0
2.683916875E0,-1.902807350E0,-5.061478508E0,5.071799428E0,7.413662383E0
2.693839875E0,1.115452280E0,-8.013265820E0,3.705400732E0,8.898688526E0
2.703762875E0,3.531980794E0,-6.909575214E0,2.518791930E-1,7.764055712E0
2.713685875E0,6.114049246E0,-4.219775030E0,-3.508091117E-1,7.437147741E0
2.723608875E0,9.708481811E0,-2.708475314E0,-2.478684416E-1,1.008225651E1
2.733531875E0,9.719631282E0,-1.524611195E0,-1.198119630E0,9.911163514E0
2.743454875E0,7.365953904E0,-3.320206922E-1,-3.161670780E0,8.022697600E0
2.753377875E0,5.199956362E0,6.556047294E-1,-4.588048752E0,6.965597970E0
2.763300875E0,3.704715146E0,7.288981888E-1,-5.632669616E0,6.781089432E0
2.773223875E0,2.103559805E0,6.084522707E-1,-6.395503217E0,6.760002915E0
2.783146875E0,9.924256933E-1,6.636735946E-1,-5.777995144E0,5.900050786E0
2.793069875E0,-2.478342354E-1,8.616266951E-1,-3.821710914E0,3.925467702E0
2.802992875E0,-2.192694760E0,5.399909502E-1,3.032949297E-1,2.278483783E0
2.812914875E0,6.802381718E-1,-2.252990371E0,1.694859165E0,2.900213297E0
2.822837875E0,2.064470583E-1,-4.340267726E0,-1.573251843E-2,4.345203313E0
2.832760875E0,-1.486045884E0,-3.045699443E0,2.263398707E-2,3.388971786E0
2.842683875E0,-2.229543328E-2,-8.389351130E-1,1.181842590E0,1.449503749E0
2.852606875E0,1.943549579E0,4.442039099E-1,1.668808065E0,2.599927391E0
2.862529875E0,4.379324788E0,3.376986310E-1,2.439581600E0,5.024349147E0
2.872452875E0,5.009230712E0,3.241409844E-1,3.219777485E0,5.963591767E0
2.882375875E0,3.859871013E0,8.169991921E-2,3.519690531E0,5.224318190E0
2.892298875E0,3.399257770E0,-1.070068531E0,3.046950163E0,4.688699749E0
2.902221875E0,2.949062510E0,-2.180734865E0,2.092522016E0,4.222703237E0
2.912144875E0,1.946618782E0,-2.458038190E0,1.139798843E0,3.336228085E0
2.922067875E0,7.493873441E-1,-2.130803736E0,4.702189764E-1,2.307165326E0
2.931990875E0,-8.655919844E-1,-1.198143896E0,4.704560079E-2,1.478854816E0
2.941913875E0,-1.420889776E0,-6.222215134E-1,3.301432244E-1,1.585900979E0
2.951836875E0,-1.426379142E0,-9.919362813E-2,1.287369191E0,1.923984477E0
2.961759875E0,-1.758117998E0,5.552741832E-1,2.324845781E0,2.967189953E0
2.971682875E0,-2.490929071E0,1.123681651E0,2.602027338E0,3.773318745E0
2.981605875E0,-3.739515435E0,1.368056966E0,1.914314816E0,4.418162148E0
2.991528875E0,-4.679696256E0,1.595243806E0,7.906593311E-1,5.006945379E0
3.001451875E0,-4.320636284E0,2.184526200E0,-2.373443305E-1,4.847306979E0
3.011374875E0,-4.057389958E0,2.507640998E0,-8.539001843E-1,4.845598226E0
3.021297875E0,-2.877100827E0,2.623726355E0,-1.058645703E0,4.035143105E0
3.031220875E0,-1.502008783E0,3.266746122E0,-1.043856340E0,3.743968038E0
3.041143875E0,-4.032725233E-1,4.096095602E0,-6.589946526E-1,4.168321228E0
3.051066875E0,8.156912613E-1,3.830820584E0,9.544234693E-2,3.917862660E0
3.060989875E0,1.543337488E0,3.479214643E0,3.576741815E-1,3.822925052E0
3.070912875E0,1.701259089E0,3.208121061E0,-1.339573717E-1,3.633767715E0
3.080835875E0,1.145788220E0,3.152886508E0,-1.262462684E0,3.584318066E0
3.090758875E0,8.301426548E-1,3.484560752E0,-2.316203157E0,4.265688400E0
3.100681875E0,9.840191513E-1,2.572648295E0,-2.813983935E0,3.937679332E0
3.110604875E0,1.363064906E0,1.502503165E0,-2.788633331E0,3.448468871E0
3.120527875E0,2.098820636E0,8.514230114E-1,-1.387406280E0,2.656099658E0
3.130450875E0,2.422652303E0,6.178665072E-2,2.955375749E-1,2.441393911E0
3.140373875E0,1.829182134E0,-9.256589690E-1,1.103382457E0,2.328133298E0
3.150296875E0,1.083332355E0,-1.988186346E0,1.294006950E0,2.607862712E0
3.160219875E0,5.178960764E-1,-2.790007427E0,9.705278707E-1,2.999046871E0
3.170142875E0,5.275591850E-2,-2.952038158E0,2.141349775E-1,2.960264560E0
3.180065875E0,1.071970046E-2,-2.351306332E0,-4.882670653E-1,2.401491433E0
3.189988875E0,4.448228377E-1,-1.394580814E0,-9.055737832E-1,1.721274783E0
3.199911875E0,8.503026849E-1,-4.026817352E-1,-9.062789574E-1,1.306334101E0
3.209834875E0,8.510973215E-1,4.262453565E-1,-6.015574533E-1,1.126020925E0
3.219757875E0,4.954129475E-1,9.485747188E-1,-2.156005821E-1,1.091655439E0
3.229681250E0,1.477766812E-1,1.194205504E0,1.328586799E-1,1.210626351E0
3.239604250E0,-1.239709121E-1,1.324449017E0,3.762347057E-1,1.382420536E0
3.249527250E0,-2.724159300E-1,1.316263061E0,4.765474910E-1,1.426133372E0
3.259450250E0,-2.895915413E-1,1.190992167E0,5.562678444E-1,1.346016165E0
3.269373250E0,-2.393645436E-1,1.077489452E0,6.674915341E-1,1.289892961E0
3.279296250E0,-1.861712533E-1,9.587103555E-1,7.363246644E-1,1.223094147E0
3.289219250E0,-1.640079671E-1,8.992019992E-1,7.851831213E-1,1.204979412E0
3.299142250E0,-2.391897118E-1,8.841491465E-1,7.407840434E-1,1.178003578E0
3.309065250E0,-2.804149210E-1,8.084082618E-1,5.699234319E-1,1.028090056E0
3.318988250E0,-3.720425445E-1,6.566936271E-1,3.647186145E-1,8.382612019E-1
3.328911250E0,-3.639850813E-1,5.043488087E-1,3.260591635E-1,7.022588115E-1
3.338834250E0,-3.187171072E-1,4.204345398E-1,3.702661604E-1,6.445485444E-1
3.348757250E0,-3.247882712E-1,4.164565328E-1,4.069603622E-1,6.667384804E-1
3.358680250E0,-1.189358747E-1,4.116106528E-1,3.829394156E-1,5.746404683E-1
3.368603250E0,8.149966121E-2,4.172079000E-1,3.579864228E-1,5.557507584E-1
3.378526250E0,1.866232431E-1,3.911421821E-1,1.976674640E-1,4.763327280E-1
3.388449250E0,2.438119358E-1,3.646906941E-1,-1.182391790E-1,4.543391528E-1
3.398372250E0,2.444855350E-1,2.996478751E-1,-3.452067482E-1,5.183914785E-1
3.408295250E0,2.393095797E-1,2.221377692E-1,-4.335061365E-1,5.427170845E-1
3.418218250E0,1.928926277E-1,2.106345418E-1,-4.219374204E-1,5.095151251E-1
3.428141250E0,1.873728561E-1,2.347829577E-1,-3.445214546E-1,4.570849561E-1
3.438064250E0,2.091385317E-1,2.480099443E-1,-2.864001310E-1,4.327503818E-1
3.447987250E0,2.239811039E-1,2.620969100E-1,-2.872356981E-1,4.487389792E-1
3.457910250E0,2.620686972E-1,2.239550838E-1,-2.831221819E-1,4.460874931E-1
3.467833250E0,3.293485147E-1,1.582453899E-1,-2.918704936E-1,4.676541805E-1
3.477756250E0,3.720349431E-1,1.065232591E-1,-3.399726132E-1,5.151102613E-1
3.487679250E0,3.768928099E-1,9.122796625E-2,-3.738206828E-1,5.386210494E-1
3.497602250E0,3.634646791E-1,5.872811839E-2,-3.440861294E-1,5.039353424E-1
3.507525250E0,3.224178100E-1,5.437881321E-2,-3.124553239E-1,4.522594708E-1
3.517448250E0,2.325080985E-1,2.878847390E-2,-3.136616045E-1,3.915001842E-1
3.527371250E0,8.755386829E-2,-3.923043162E-2,-3.032202315E-1,3.180365002E-1
3.537294250E0,-6.348555923E-2,-1.197129697E-1,-2.577294785E-1,2.911805203E-1
3.547217250E0,-2.157985103E-1,-2.025661151E-1,-1.938694051E-1,3.538182786E-1
3.557140250E0,-2.804733932E-1,-2.364166698E-1,-1.290170592E-1,3.888490293E-1
3.567063250E0,-2.614342743E-1,-2.273719043E-1,-7.017126560E-2,3.535107766E-1
3.576986250E0,-1.595576513E-1,-2.365108100E-1,-1.236686110E-2,2.855677618E-1
3.586909250E0,-3.931726277E-2,-2.273875456E-1,6.320226163E-2,2.392602535E-1
3.596832250E0,-8.369119763E-3,-1.976804741E-1,7.063407272E-2,2.100875632E-1
3.606754250E0,-6.850773275E-2,-1.141848658E-1,1.593804806E-2,1.341100831E-1
3.616677250E0,-1.775600588E-1,2.084196165E-2,-7.833807170E-2,1.951891783E-1
3.626600250E0,-2.817510098E-1,2.163082413E-1,-1.540413880E-1,3.871713265E-1
3.636523250E0,-3.116560096E-1,4.014957006E-1,-1.890062758E-1,5.422652840E-1
3.646446250E0,-2.990476584E-1,5.792555881E-1,-1.973312491E-1,6.811065704E-1
3.656369250E0,-2.057582563E-1,7.133614790E-1,-1.687699395E-1,7.613831836E-1
3.666292250E0,-1.409699374E-1,7.769705607E-1,-1.442136803E-1,8.027162394E-1
3.676215250E0,-8.971266031E-2,8.051363061E-1,-1.232283157E-1,8.194376429E-1
3.686138250E0,-1.188762331E-1,8.217279267E-1,-1.102065665E-1,8.375642254E-1
3.696061250E0,-1.847848785E-1,7.567986900E-1,-1.205865437E-1,7.883088373E-1
3.705984250E0,-2.476699287E-1,6.569180140E-1,-1.749217951E-1,7.235186971E-1
3.715907250E0,-2.809622204E-1,6.179922223E-1,-1.722507870E-1,7.003745354E-1
3.725830250E0,-2.621727777E-1,6.511824802E-1,-1.440473270E-1,7.166050657E-1
3.735753250E0,-2.152699220E-1,7.163608083E-1,-1.689389241E-1,7.668469907E-1
3.745676250E0,-2.020610619E-1,7.909391204E-1,-2.524582136E-1,8.544872816E-1
3.755599250E0,-1.659124053E-1,7.678192297E-1,-3.597680694E-1,8.640059950E-1
3.765522250E0,-1.619930166E-1,6.421523327E-1,-4.091185695E-1,7.784467610E-1
3.775445250E0,-2.292611396E-1,4.989443734E-1,-4.273051643E-1,6.957699774E-1
3.785368250E0,-2.857955289E-1,4.206080559E-1,-4.146032578E-1,6.561143821E-1
3.795291250E0,-3.160583782E-1,4.354675850E-1,-4.286763364E-1,6.879595318E-1
3.805214250E0,-2.274555194E-1,5.626009637E-1,-4.528656828E-1,7.571942844E-1
3.815137250E0,-9.357299209E-2,7.319100165E-1,-4.710610485E-1,8.754122963E-1
3.825060250E0,-7.676750958E-2,8.355046977E-1,-4.916239518E-1,9.724481788E-1
3.834983250E0,-7.665407360E-2,8.684614324E-1,-5.093006694E-1,1.009697122E0
3.844906250E0,-1.374721330E-1,8.495097294E-1,-4.293943745E-1,9.617405557E-1
3.854829250E0,-2.389838898E-1,7.695631617E-1,-3.203508192E-1,8.671593895E-1
3.864752250E0,-2.796004039E-1,7.004256839E-1,-2.731099945E-1,8.020982443E-1
3.874675250E0,-2.313737386E-1,6.858912599E-1,-3.739920062E-1,8.147703039E-1
3.884598250E0,-6.610452712E-2,7.600851175E-1,-5.364528000E-1,9.326740058E-1
3.894521250E0,1.537577981E-1,8.631556689E-1,-7.141420823E-1,1.130786489E0
3.904444250E0,3.377620733E-1,1.002758308E0,-8.653586805E-1,1.366913709E0
3.914367250E0,4.507390505E-1,1.128461165E0,-9.761821282E-1,1.558692350E0
3.924290250E0,5.038919950E-1,1.216136071E0,-9.951136583E-1,1.650195527E0
3.934213250E0,4.564336538E-1,1.283864955E0,-9.833829743E-1,1.680381795E0
3.944136250E0,3.591886103E-1,1.371800939E0,-9.440747747E-1,1.703564338E0
3.954059250E0,2.719370431E-1,1.501430786E0,-9.121635953E-1,1.777719490E0
3.963982250E0,2.288851637E-1,1.666494468E0,-8.964556351E-1,1.906102026E0
3.973905250E0,2.808651567E-1,1.821154491E0,-8.534689522E-1,2.030738331E0
3.983828250E0,3.116975248E-1,1.957638445E0,-8.287317216E-1,2.148557631E0
3.993751250E0,3.411324084E-1,2.066454836E0,-7.631072509E-1,2.229111838E0
4.003674250E0,3.787609953E-1,2.120135199E0,-7.397479168E-1,2.277204456E0
4.013597250E0,3.448693639E-1,2.132655257E0,-7.200451389E-1,2.277195276E0
4.023520250E0,3.422702765E-1,2.151639120E0,-7.160471052E-1,2.293343259E0
4.033443250E0,4.060072660E-1,2.201527856E0,-7.760968405E-1,2.369365550E0
4.043366250E0,4.493427354E-1,2.332727096E0,-8.485891584E-1,2.522623269E0
4.053289250E0,4.593724644E-1,2.520629710E0,-8.954654092E-1,2.714121496E0
4.063212250E0,4.046425259E-1,2.696699606E0,-9.304750282E-1,2.881268491E0
4.073135250E0,1.952829695E-1,2.768231227E0,-9.905361655E-1,2.946591498E0
4.083058250E0,-3.318528771E-2,2.741851221E0,-9.942628884E-1,2.916746144E0
4.092981250E0,-1.755030084E-1,2.639311231E0,-8.981875804E-1,2.793475615E0
4.102904250E0,-1.444420141E-1,2.599023331E0,-6.122715989E-1,2.674072228E0
4.112827250E0,1.923909366E-2,2.604230568E0,-2.269886193E-1,2.614174981E0
4.122750250E0,2.504801005E-1,2.541753654E0,1.762847811E-1,2.560142231E0
4.132673250E0,5.503656650E-1,2.357046251E0,6.479457539E-1,2.505674180E0
4.142596250E0,8.655083692E-1,2.037247409E0,1.186618742E0,2.511482785E0
4.152519250E0,1.111216557E0,1.703807013E0,1.717468740E0,2.662228286E0
4.162442250E0,1.276110377E0,1.433500466E0,1.985702741E0,2.761593137E0
4.172365250E0,1.390729837E0,1.298642038E0,1.809209799E0,2.625612447E0
4.182288250E0,1.403463904E0,1.091451799E0,1.124534760E0,2.103700640E0
4.192211250E0,1.580863749E0,7.716310295E-1,3.237691015E-1,1.788678582E0
4.202134250E0,1.810507881E0,3.319467250E-1,-1.376343933E-1,1.845825193E0
4.212057250E0,1.774998910E0,-1.919901100E-1,-1.719747984E-1,1.793615528E0
4.221980250E0,1.768399158E0,-6.204892758E-1,1.104679370E-1,1.877350710E0
4.231903125E0,1.902713209E0,-9.987248987E-1,3.678237784E-1,2.180152131E0
4.241826125E0,1.865904987E0,-1.298040944E0,4.145515099E-1,2.310490136E0
4.251749125E0,1.559464109E0,-1.435944310E0,2.179140329E-1,2.131044554E0
4.261671125E0,7.338910532E-1,-1.260807045E0,-9.918398023E-2,1.462213371E0
4.271594125E0,-9.304323435E-2,-8.525193644E-1,-2.159797740E-1,8.843605446E-1
4.281517125E0,-7.516730207E-1,-4.512310937E-1,-2.291172981E-2,8.770101353E-1
4.291440125E0,-1.262012740E0,-1.811321229E-1,3.011889088E-1,1.310038076E0
4.301363125E0,-1.577226196E0,-2.809850246E-2,7.491499472E-1,1.746326900E0
4.311286125E0,-1.759374565E0,1.223646820E-2,1.176775539E0,2.116683552E0
4.321209125E0,-1.787879156E0,-1.164765358E-3,1.452025614E0,2.303235034E0
4.331132125E0,-1.792982606E0,-2.310256831E-2,1.472933211E0,2.320528517E0
4.341055125E0,-1.772558282E0,-1.313095332E-1,1.284902835E0,2.193212337E0
4.350978125E0,-1.763575205E0,-3.700886974E-1,9.879595900E-1,2.055049220E0
4.360901125E0,-1.727887309E0,-7.163476521E-1,6.655692619E-1,1.985379297E0
4.370824125E0,-1.598159813E0,-1.095032926E0,4.300317210E-1,1.984474534E0
4.380747125E0,-1.491151088E0,-1.398358992E0,2.594570383E-1,2.060644898E0
4.390670125E0,-1.508891541E0,-1.637244356E0,6.774233222E-2,2.227534913E0
4.400593125E0,-1.480667616E0,-1.788605381E0,-1.123726675E-1,2.324674905E0
4.410516125E0,-1.442233282E0,-1.873897838E0,-3.163109779E-1,2.385703792E0
4.420439125E0,-1.333125992E0,-1.919388007E0,-5.360116276E-1,2.397620424E0
4.430362125E0,-1.060044649E0,-1.927210119E0,-7.529763651E-1,2.324824060E0
4.440285125E0,-6.105709362E-1,-1.793527859E0,-9.062798345E-1,2.100210034E0
4.450208125E0,-1.149293625E-1,-1.519771163E0,-1.150732040E0,1.909737514E0
4.460131125E0,2.053097749E-1,-1.065276592E0,-1.405998672E0,1.775893743E0
4.470054125E0,9.325490355E-2,-5.723272222E-1,-1.651082962E0,1.749951391E0
4.479977125E0,4.816468477E-2,-1.076890478E-1,-1.701132789E0,1.705218324E0
4.489900125E0,1.623543745E-1,3.037100089E-1,-1.507801327E0,1.546629741E0
4.499823125E0,1.572573566E-1,6.333727384E-1,-1.376750314E0,1.523591917E0
4.509746125E0,1.538379049E-1,8.442724514E-1,-1.301741062E0,1.559163836E0
4.519669125E0,1.627806365E-1,9.395230097E-1,-1.296747540E0,1.609582307E0
4.529592125E0,1.305806047E-1,8.604655112E-1,-1.320393973E0,1.581421017E0
4.539515125E0,8.958986878E-2,7.485401557E-1,-1.289072193E0,1.493333796E0
4.549438125E0,2.379992187E-2,7.176095543E-1,-1.239170885E0,1.432157251E0
4.559361125E0,-6.873285055E-2,6.897970538E-1,-1.234358919E0,1.415692806E0
4.569284125E0,-2.695601499E-1,6.401791897E-1,-1.237587751E0,1.419195375E0
4.579207125E0,-4.995937067E-1,5.215185727E-1,-1.216490120E0,1.414716829E0
4.589130125E0,-7.284847176E-1,2.799097216E-1,-1.098446238E0,1.347450769E0
4.599053125E0,-9.182520086E-1,-1.072774038E-1,-8.571187842E-1,1.260693382E0
4.608976125E0,-1.023983701E0,-5.984470269E-1,-5.834024334E-1,1.321756355E0
4.618899125E0,-1.018803068E0,-1.018559531E0,-3.505019867E-1,1.482658036E0
4.628822125E0,-8.789604735E-1,-1.302162939E0,-2.364660788E-1,1.588746688E0
4.638745125E0,-6.449853086E-1,-1.401496754E0,-3.635556033E-1,1.585046333E0
4.648668125E0,-3.564953828E-1,-1.253565268E0,-6.304532236E-1,1.447752087E0
4.658591125E0,-1.789908725E-1,-9.555816565E-1,-8.624909136E-1,1.299640185E0
4.668514125E0,2.021967173E-2,-7.163286486E-1,-1.013966836E0,1.241637754E0
4.678437125E0,1.400846690E-1,-4.623761791E-1,-1.151732499E0,1.248960846E0
4.688360125E0,3.852139825E-1,-2.863534994E-1,-1.106956568E0,1.206540916E0
4.698283125E0,5.972293442E-1,-1.581502265E-1,-1.078439405E0,1.242870039E0
4.708206125E0,5.713156539E-1,-1.515528131E-1,-1.122168392E0,1.268318466E0
4.718129125E0,5.038861477E-1,-2.748451558E-1,-1.115070457E0,1.254122495E0
4.728052125E0,8.721741951E-1,-7.129565594E-1,-8.049575275E-1,1.384540178E0
4.737975125E0,9.497953981E-1,-1.209501162E0,-6.244197741E-1,1.659790473E0
4.747898125E0,7.315504128E-1,-1.580663189E0,-5.104519862E-1,1.814999547E0
4.757821125E0,1.034394084E0,-2.228758632E0,-4.295121959E-1,2.494357009E0
4.767744125E0,1.232077335E0,-2.395138230E0,-5.318954802E-1,2.745471635E0
4.777667125E0,1.364077059E0,-2.424876584E0,-7.706226772E-1,2.886969342E0
4.787590125E0,1.836375963E0,-2.273310615E0,-1.202609122E0,3.160140270E0
4.797513125E0,2.084837020E0,-1.654993287E0,-1.592241261E0,3.101738289E0
4.807436125E0,2.257612302E0,-1.233946836E0,-1.942891767E0,3.224014038E0
4.817358125E0,2.902987620E0,-1.108124696E0,-1.829258732E0,3.605754425E0
4.827281125E0,3.883238826E0,-1.100339859E0,-9.809248048E-1,4.153613494E0
4.837204125E0,4.829811823E0,-1.288915487E0,-9.210651040E-2,4.999686889E0
4.847127125E0,5.016259650E0,-1.660349629E0,2.999001825E-1,5.292406058E0
4.857050125E0,4.222252788E0,-1.763996204E0,4.308740124E-1,4.596167276E0
4.866973125E0,3.153236756E0,-1.603483995E0,7.919407484E-1,3.625083876E0
4.876896125E0,2.192788900E0,-1.296320840E0,1.501448620E0,2.956876534E0
4.886819125E0,8.806000328E-1,-8.703460631E-1,1.857637024E0,2.232436785E0
4.896742125E0,-3.723810983E-1,-2.560937199E-1,1.859813358E0,1.913937669E0
4.906665125E0,-1.281817845E0,7.399174860E-1,1.945650483E0,2.444604401E0
4.916588125E0,-2.192759664E0,1.943315252E0,1.812705265E0,3.445369282E0
4.926511125E0,-3.046836727E0,2.922923994E0,1.552065042E0,4.498400228E0
4.936434125E0,-3.618125483E0,3.487044357E0,1.392655910E0,5.214384033E0
4.946357125E0,-3.901237140E0,3.613548868E0,1.316979783E0,5.478304701E0
4.956280125E0,-3.535627118E0,3.241551054E0,1.428086821E0,5.004772155E0
4.966203125E0,-2.565992702E0,2.398342796E0,1.526352789E0,3.829637000E0
4.976126125E0,-1.488982941E0,1.256738844E0,1.529710260E0,2.477191192E0
4.986049125E0,-7.115178519E-1,1.300239497E-1,1.576861914E0,1.734836413E0
4.995972125E0,-3.734493846E-1,-7.093573058E-1,1.703993247E0,1.883147688E0
5.005895125E0,-3.055146790E-1,-1.193232162E0,1.509117536E0,1.947967645E0
5.015818125E0,-2.740911573E-1,-1.354680583E0,9.439663088E-1,1.673725736E0
5.025741125E0,-5.446915269E-2,-1.295782457E0,2.155412328E-1,1.314715592E0
5.035664125E0,9.337418675E-2,-1.139437559E0,-6.333838481E-1,1.306985764E0
5.045587125E0,1.695973206E-1,-8.056383627E-1,-1.549860642E0,1.754959952E0
5.055510125E0,2.342230868E-1,-2.547579966E-1,-2.403802049E0,2.428585264E0
5.065433125E0,3.145737702E-1,4.256012857E-1,-2.966631054E0,3.013468587E0
5.075356125E0,1.551564521E-1,1.067040258E0,-3.207324085E0,3.383722244E0
5.085279125E0,-1.959647548E-1,1.555287443E0,-2.962729207E0,3.351877917E0
5.095202125E0,-4.631556129E-1,1.859364876E0,-2.189102231E0,2.909281602E0
5.105125125E0,-5.939133883E-1,1.925959400E0,-1.220530838E0,2.356214814E0
5.115048125E0,-6.803685647E-1,1.781601586E0,-4.268765634E-1,1.954284829E0
5.124971125E0,-7.674862307E-1,1.401745115E0,6.660095572E-2,1.599487470E0
5.134894125E0,-7.317427862E-1,8.813236257E-1,1.370458710E-1,1.153672575E0
5.144817125E0,-6.651605415E-1,3.710491025E-1,-1.383123779E-1,7.741100028E-1
5.154740125E0,-6.872776347E-1,3.689454205E-2,-4.179089811E-1,8.052078433E-1
5.164663125E0,-8.261811662E-1,-2.040017527E-1,-5.478133553E-1,1.012072876E0
5.174586125E0,-9.521173275E-1,-3.684795436E-1,-6.052154714E-1,1.186840489E0
5.184509125E0,-1.003700879E0,-3.761872702E-1,-7.132728937E-1,1.287513316E0
5.194432125E0,-9.870673048E-1,-2.315297862E-1,-7.707972166E-1,1.273591872E0
5.204355125E0,-1.073945820E0,8.552524991E-2,-8.858943942E-1,1.394805746E0
5.214278125E0,-1.137582822E0,5.937180912E-1,-8.656440246E-1,1.547880947E0
5.224201125E0,-1.109865850E0,1.057970569E0,-8.366143531E-1,1.746719069E0
5.234124375E0,-9.566769862E-1,1.317276530E0,-8.864636207E-1,1.853716824E0
5.244047375E0,-6.842867839E-1,1.335412838E0,-9.454412690E-1,1.773537438E0
5.253970375E0,-3.310079545E-1,1.102242616E0,-1.023556562E0,1.540186055E0
5.263893375E0,5.129411459E-2,8.044564211E-1,-1.092706026E0,1.357861436E0
5.273816375E0,3.523198861E-1,5.270520122E-1,-1.161135699E0,1.322932061E0
5.283739375E0,6.645606172E-1,3.372648407E-1,-1.167614414E0,1.385175731E0
5.293662375E0,9.693069720E-1,2.121542332E-1,-1.152462816E0,1.520768216E0
5.303584375E0,1.344512860E0,2.305451882E-1,-1.046461567E0,1.719286982E0
5.313507375E0,1.675940645E0,5.164123455E-1,-8.918442285E-1,1.967446285E0
5.323430375E0,1.766608155E0,1.042935769E0,-8.232344618E-1,2.210505456E0
5.333353375E0,1.543933904E0,1.710580427E0,-6.647617614E-1,2.398275526E0
5.343276375E0,1.237180785E0,2.395833171E0,-2.867790306E-1,2.711618537E0
5.353199375E0,1.108979412E0,2.934529256E0,4.119538844E-2,3.137354674E0
5.363122375E0,1.143551660E0,3.256740367E0,9.218515545E-2,3.452906937E0
5.373045375E0,1.363290024E0,3.287031867E0,-9.699010491E-2,3.559851860E0
5.382968375E0,1.787716019E0,3.147200090E0,-2.456207719E-1,3.627826696E0
5.392891375E0,2.336850260E0,3.041304091E0,1.570600131E-1,3.838628344E0
5.402814375E0,3.083435619E0,2.924493387E0,1.246025576E0,4.428635966E0
5.412737375E0,4.106515340E0,2.344372703E0,2.107609878E0,5.177023374E0
5.422660375E0,4.560301375E0,1.945521845E0,2.478918305E0,5.543143498E0
5.432583375E0,3.890640816E0,2.020907365E0,2.534914166E0,5.064281031E0
5.442506375E0,2.947897160E0,2.415199734E0,2.588213875E0,4.606749232E0
5.452429375E0,1.460317551E0,2.408311422E0,1.970444432E0,3.437316179E0
5.462352375E0,1.220647198E-1,1.790729089E0,1.135494196E0,2.123901490E0
5.472275375E0,-1.235414926E0,9.889486465E-1,7.373438340E-1,1.745836589E0
5.482198375E0,-2.629282964E0,-9.519786023E-2,3.277525172E-1,2.651341783E0
5.492121375E0,-3.386175794E0,-1.257767369E0,-2.652238548E-2,3.612321788E0
5.502044375E0,-3.407659049E0,-2.119970600E0,5.901887119E-3,4.013284238E0
5.511967375E0,-2.926436709E0,-2.639962026E0,5.457598132E-1,3.978854746E0
5.521890375E0,-2.107530649E0,-2.574722302E0,1.330282784E0,3.583368897E0
5.531813375E0,-1.264324145E0,-2.071272211E0,2.046882159E0,3.174651270E0
5.541736375E0,-2.338441873E-1,-1.379825657E0,2.326933383E0,2.715367547E0
5.551659375E0,8.456681818E-1,-4.590402695E-1,1.896265192E0,2.126427596E0
5.561582375E0,1.968228337E0,5.834188787E-1,8.566290799E-1,2.224435604E0
5.571505375E0,2.800969495E0,1.490023161E0,-2.109073144E-1,3.179635360E0
5.581428375E0,3.080152992E0,2.233589309E0,-9.094396698E-1,3.911948897E0
5.591351375E0,2.773939571E0,2.676369422E0,-1.137885123E0,4.019014379E0
5.601274375E0,2.090050398E0,2.631535311E0,-1.144061244E0,3.549952801E0
5.611197375E0,1.237773693E0,2.349886628E0,-1.158870488E0,2.897763221E0
5.621120375E0,3.726804757E-1,2.014459640E0,-1.025075376E0,2.290789799E0
5.631043375E0,-4.237418711E-1,1.628683448E0,-7.664474729E-1,1.849218396E0
5.640966375E0,-1.040405021E0,1.280685239E0,-3.641780394E-1,1.689740493E0
5.650889375E0,-1.489776993E0,1.016596767E0,1.635893065E-1,1.810984797E0
5.660812375E0,-1.714370885E0,8.024910258E-1,6.436319706E-1,1.999330261E0
5.670735375E0,-1.784380767E0,5.883323671E-1,9.602639607E-1,2.110037102E0
5.680658375E0,-1.899573255E0,3.277313210E-1,1.123306260E0,2.231054307E0
5.690581375E0,-1.962793935E0,3.176105216E-2,1.199068049E0,2.300289760E0
5.700504375E0,-1.895352734E0,-1.878045268E-1,1.292792484E0,2.301943729E0
5.710427375E0,-1.809840714E0,-2.432644902E-1,1.285966444E0,2.233475032E0
5.720350375E0,-1.833520183E0,-2.394677469E-1,1.137479326E0,2.170944560E0
5.730273375E0,-1.982638215E0,-1.979605557E-1,8.976236165E-1,2.185353709E0
5.740195375E0,-2.063892294E0,-1.065963493E-1,6.778919765E-1,2.174983152E0
5.750118375E0,-2.123200602E0,4.060408875E-2,3.881416833E-1,2.158768967E0
5.760041375E0,-2.180000455E0,1.695881112E-1,7.688269973E-2,2.187938084E0
5.769964375E0,-2.094472647E0,2.810822345E-1,-1.259911251E-1,2.117001808E0
5.779887375E0,-1.957900400E0,3.959162875E-1,-2.773889869E-1,2.016697383E0
5.789810375E0,-1.813378864E0,5.363047193E-1,-4.054014945E-1,1.933989666E0
5.799733375E0,-1.694847617E0,5.955636187E-1,-4.308573478E-1,1.847388027E0
5.809656375E0,-1.505839879E0,5.374659763E-1,-3.590918389E-1,1.638709970E0
5.819579375E0,-1.333722993E0,4.193456420E-1,-2.470390141E-1,1.419752114E0
5.829502375E0,-1.238534415E0,2.395729968E-1,-2.086760169E-1,1.278635366E0
5.839425375E0,-9.459526080E-1,7.096063972E-2,-1.387158358E-1,9.586990310E-1
5.849348375E0,-7.769008327E-1,-7.626084834E-3,-3.466676751E-1,8.507711431E-1
5.859271375E0,-4.706470656E-1,-1.503132033E-1,-4.542368549E-1,6.711436805E-1
5.869194375E0,-1.903713083E-1,-3.142445719E-1,-4.632874677E-1,5.912919446E-1
5.879117375E0,2.478862756E-1,-6.369322309E-1,-2.314360115E-1,7.215905347E-1
5.889040375E0,5.039878893E-1,-7.812910683E-1,-2.095846742E-1,9.530714882E-1
5.898963375E0,4.250259197E-1,-4.545527507E-1,-5.692860854E-1,8.434167906E-1
5.908886375E0,3.017233443E-1,-6.586362183E-2,-9.181134295E-1,9.686626155E-1
5.918809375E0,4.011885756E-1,-3.566801548E-4,-8.527573460E-1,9.424157743E-1
5.928732375E0,8.624625546E-1,-3.828464448E-2,-4.978196615E-1,9.965599768E-1
5.938655375E0,1.425585675E0,-5.780294269E-2,-2.925408769E-1,1.456439446E0
5.948578375E0,1.851373487E0,4.272801675E-2,-5.087372902E-1,1.920474707E0
5.958501375E0,1.752872461E0,4.421663015E-1,-1.102916434E0,2.117663232E0
5.968424375E0,2.729662115E0,8.217957544E-1,-1.459468535E0,3.202569582E0
5.978347375E0,3.342622808E0,9.495109311E-1,-1.902800918E0,3.961735677E0
5.988270375E0,3.608884544E0,6.118980349E-1,-1.998014638E0,4.170195361E0
5.998193375E0,4.086576920E0,3.362857975E-2,-9.861229795E-1,4.204007651E0
6.008116375E0,4.793933893E0,-3.609329809E-1,5.081709874E-1,4.834285111E0
6.018039375E0,4.980705655E0,-7.301785098E-1,1.460985011E0,5.241666403E0
6.027962375E0,4.122704526E0,-1.231135933E0,2.069122336E0,4.774270157E0
6.037885375E0,2.376044732E0,-1.801619821E0,2.714799955E0,4.032562627E0
6.047808375E0,3.818541723E-1,-1.796938832E0,3.338979116E0,3.810981935E0
6.057731375E0,-1.912623070E0,-1.210327301E0,3.011501710E0,3.767248563E0
6.067654375E0,-3.409578105E0,-2.995573895E-1,2.204740024E0,4.071343275E0
6.077577375E0,-4.198608402E0,1.072366998E0,1.451600522E0,4.570057720E0
6.087500375E0,-4.764476790E0,2.291669410E0,8.003417355E-1,5.347198767E0
6.097423375E0,-4.828512572E0,3.068097787E0,7.111412913E-1,5.764848621E0
6.107346375E0,-3.790174541E0,3.113724196E0,1.359021556E0,5.089954913E0
6.117269375E0,-1.926217847E0,2.537319710E0,2.215663792E0,3.880395927E0
6.127192375E0,-1.170115560E-1,1.679614743E0,2.759101092E0,3.232249406E0
6.137115375E0,1.328069905E0,6.417174460E-1,3.029651760E0,3.369623234E0
6.147038375E0,2.307941626E0,-2.659059325E-1,3.272700634E0,4.013461094E0
6.156960375E0,2.855843275E0,-8.882561577E-1,3.405120480E0,4.532072958E0
6.166883375E0,2.324447731E0,-1.191373113E0,2.584847341E0,3.674760254E0
6.176806375E0,1.045793231E0,-1.091018374E0,8.420513865E-1,1.730044829E0
6.186729375E0,6.305707526E-1,-8.721807732E-1,-1.036892891E0,1.494478385E0
6.196652375E0,5.024746299E-2,-3.515213026E-1,-2.693352368E0,2.716659531E0
6.206575375E0,-5.599925208E-1,2.241122277E-1,-3.775600356E0,3.823476947E0
6.216498375E0,-1.090855383E0,6.279185287E-1,-4.029209302E0,4.221229056E0
6.226421167E0,-1.738574849E0,1.028215404E0,-3.586850189E0,4.116474669E0
6.236344167E0,-2.645900166E0,1.291671572E0,-2.515615138E0,3.872663510E0
6.246267167E0,-3.023655440E0,1.339264984E0,-1.128131675E0,3.494109900E0
6.256190167E0,-2.820017384E0,1.375879371E0,1.164057845E-1,3.139919171E0
6.266113167E0,-2.281941397E0,1.414484443E0,7.697058338E-1,2.792932124E0
6.276036167E0,-1.611563970E0,1.449970610E0,8.754474664E-1,2.337939577E0
6.285959167E0,-1.106433535E0,1.425732294E0,6.048558676E-1,1.903354502E0
6.295882167E0,-8.825781459E-1,1.290223363E0,1.849965477E-1,1.574116969E0
6.305805167E0,-8.486754048E-1,1.053055472E0,-8.912413806E-2,1.355403587E0
6.315728167E0,-9.105243284E-1,7.564703688E-1,-2.761865070E-1,1.215557879E0
6.325651167E0,-9.220597154E-1,4.900423530E-1,-4.459694767E-1,1.135440179E0
6.335574167E0,-8.350437909E-1,3.270779677E-1,-6.238330060E-1,1.092449426E0
6.345497167E0,-7.186403453E-1,3.591165434E-1,-7.811909348E-1,1.120565890E0
6.355420167E0,-5.414188403E-1,5.890762791E-1,-8.975973040E-1,1.202425109E0
6.365343167E0,-3.893076181E-1,8.848395565E-1,-9.589807892E-1,1.361670157E0
6.375266167E0,-2.772217566E-1,1.191596696E0,-1.043103511E0,1.607737392E0
6.385189167E0,-1.315740466E-1,1.386957214E0,-1.140410243E0,1.800415942E0
6.395112167E0,6.261198521E-3,1.376063851E0,-1.242115835E0,1.853764460E0
6.405035167E0,1.817185986E-1,1.080515971E0,-1.321561662E0,1.716700800E0
6.414958167E0,4.150499851E-1,6.437333467E-1,-1.342868038E0,1.545947502E0
6.424881167E0,7.469350219E-1,1.305029829E-1,-1.299784584E0,1.504786669E0
6.434804167E0,1.178089993E0,-3.104666128E-1,-1.252972945E0,1.747634616E0
6.444727167E0,1.527573979E0,-4.701716870E-1,-1.224710428E0,2.013568800E0
6.454650167E0,1.903185080E0,-1.792412795E-1,-1.018263662E0,2.165895143E0
6.464573167E0,2.130560492E0,6.106197605E-1,-5.456788293E-1,2.282522703E0
6.474496167E0,1.943025668E0,1.403142892E0,-2.065718964E-1,2.405583229E0
6.484419167E0,1.626036998E0,1.746606877E0,9.192875504E-2,2.388112811E0
6.494342167E0,1.416869230E0,1.855711828E0,4.672568500E-1,2.381074079E0
6.504265167E0,1.274763179E0,2.004191052E0,6.031028724E-1,2.450619516E0
6.514188167E0,1.219098271E0,2.182652167E0,2.951677385E-1,2.517398473E0
6.524111167E0,1.425677476E0,2.153215968E0,1.063608527E-1,2.584609816E0
6.534034167E0,2.062222914E0,1.827984185E0,8.144425884E-1,2.873605098E0
6.543957167E0,3.064669565E0,9.784181035E-1,1.820606900E0,3.696499832E0
6.553879167E0,3.786553946E0,-1.546158770E-1,2.148700309E0,4.356467591E0
6.563802167E0,4.037763194E0,-3.679996334E-1,2.474667379E0,4.750045682E0
6.573725167E0,3.834411651E0,3.758590952E-1,2.654537088E0,4.678733795E0
6.583648167E0,3.088802193E0,1.417134109E0,2.293016608E0,4.099621109E0
6.593571167E0,2.277621474E0,2.184299620E0,2.003475353E0,3.737999184E0
6.603494167E0,1.600265980E0,2.243743145E0,1.772021508E0,3.276475962E0
6.613417167E0,8.342415529E-1,1.497106185E0,1.418547966E0,2.224761612E0
6.623340167E0,-2.849324799E-1,-6.926779769E-2,8.295398068E-1,8.798413704E-1
6.633263167E0,-1.337795579E0,-1.737917330E0,1.310963291E-1,2.197098064E0
6.643186167E0,-1.984718655E0,-2.804798251E0,-3.278527969E-1,3.451592216E0
6.653109167E0,-2.522699917E0,-3.318658287E0,-6.351573086E-1,4.216744302E0
6.663032167E0,-3.054142238E0,-3.567185418E0,-9.361643690E-1,4.788423576E0
6.672955167E0,-3.453339252E0,-3.682853868E0,-9.251347661E-1,5.132722371E0
6.682878167E0,-3.852625144E0,-3.830172128E0,-5.595335144E-1,5.461320058E0
6.692801167E0,-3.951652418E0,-3.807589304E0,1.982884383E-1,5.491139358E0
6.702724167E0,-3.297377638E0,-2.774148609E0,1.520226368E0,4.569429724E0
6.712647167E0,-2.543983782E0,-1.678151916E0,2.192131088E0,3.754129199E0
6.722570167E0,-1.657849360E0,-5.815419225E-1,2.210503625E0,2.823646894E0
6.732493167E0,-5.376105487E-1,3.117845752E-1,1.981026723E0,2.076222917E0
6.742416167E0,5.254734832E-1,8.381856461E-1,1.443091654E0,1.749625983E0
6.752339167E0,1.239456521E0,1.040014647E0,5.406183565E-1,1.705916510E0
6.762262167E0,1.514928791E0,1.025385059E0,-4.379125983E-1,1.881008029E0
6.772185167E0,1.551086218E0,8.026586947E-1,-1.165983333E0,2.099915848E0
6.782108167E0,1.379560486E0,5.034375201E-1,-1.552618774E0,2.137115235E0
6.792031167E0,1.003221992E0,2.412210345E-1,-1.562300009E0,1.872277562E0
6.801954167E0,4.259895408E-1,3.722337484E-3,-1.330449722E0,1.396988692E0
6.811877167E0,-2.970584357E-1,-1.936008717E-1,-9.377986658E-1,1.002592315E0
6.821800167E0,-1.056164437E0,-4.191262253E-1,-5.251460391E-1,1.251770136E0
6.831723167E0,-1.688251957E0,-6.535299911E-1,-2.153207928E-1,1.823090553E0
6.841646167E0,-2.097606754E0,-8.102127126E-1,3.977860808E-3,2.248647273E0
6.851569167E0,-2.289822859E0,-8.232091726E-1,1.082603207E-1,2.435709828E0
6.861492167E0,-2.373232221E0,-7.649941474E-1,8.875254750E-2,2.495059966E0
6.871415167E0,-2.263036764E0,-7.591280745E-1,-7.994956434E-2,2.388305417E0
6.881338167E0,-1.937131675E0,-8.258548915E-1,-3.290199012E-1,2.131377377E0
6.891261167E0,-1.465590570E0,-9.114217298E-1,-5.784033564E-1,1.820218594E0
6.901183167E0,-8.993163854E-1,-9.817859535E-1,-8.134924158E-1,1.560270339E0
6.911106167E0,-3.571982181E-1,-9.735310006E-1,-9.830853510E-1,1.428919166E0
6.921029167E0,6.874688387E-2,-9.125705615E-1,-1.072153063E0,1.409618159E0
6.930952167E0,2.801669991E-1,-8.106079844E-1,-1.123744801E0,1.413641125E0
6.940875167E0,2.629118657E-1,-7.703202300E-1,-1.166775923E0,1.422632054E0
6.950798167E0,1.686336994E-1,-7.330239111E-1,-1.188804431E0,1.406775517E0
6.960721167E0,3.590599716E-2,-6.703315267E-1,-1.227618833E0,1.399171754E0
6.970644167E0,-1.614351922E-1,-6.486740246E-1,-1.239651234E0,1.408394296E0
6.980567167E0,-3.419556963E-1,-6.861074607E-1,-1.178025674E0,1.405496935E0
6.990490167E0,-5.016460794E-1,-7.459621914E-1,-1.090273000E0,1.413083010E0
7.000413167E0,-6.008154416E-1,-7.660941549E-1,-9.739405981E-1,1.377112827E0
7.010336167E0,-6.805416423E-1,-7.022022142E-1,-8.523018479E-1,1.297167420E0
7.020259167E0,-7.469923246E-1,-5.646065587E-1,-7.351645768E-1,1.190481018E0
7.030182167E0,-7.073043483E-1,-4.138578840E-1,-6.334616160E-1,1.035775752E0
7.040105167E0,-6.192879653E-1,-2.317812896E-1,-6.127227116E-1,9.014817089E-1
7.050028167E0,-3.951618505E-1,-2.574309781E-2,-5.598384467E-1,6.857365978E-1
7.059951167E0,-1.041663927E-1,3.960333779E-2,-4.581810942E-1,4.715389452E-1
7.069874167E0,5.733428836E-2,-3.845479846E-2,-3.958322337E-1,4.018073536E-1
7.079797167E0,1.369564086E-1,-3.201561069E-1,-2.682962742E-1,4.395905839E-1
7.089720167E0,1.124513125E-1,-7.582602015E-1,-6.694243312E-2,7.694706754E-1
7.099643167E0,-3.418866992E-3,-1.243886957E0,5.560292780E-2,1.245133782E0
7.109566167E0,-9.955235481E-2,-1.756370412E0,7.811880112E-4,1.759189673E0
7.119489167E0,-1.479667157E-1,-2.183374737E0,-1.622450316E-1,2.194388945E0
7.129412167E0,1.790206933E-1,-2.461859053E0,-4.527694961E-1,2.509541517E0
7.139335167E0,8.986866403E-1,-2.541550756E0,-7.733410478E-1,2.804491807E0
7.149258167E0,1.725061934E0,-2.438311439E0,-1.143632351E0,3.198295844E0
7.159181167E0,2.436994938E0,-2.165107012E0,-1.542910934E0,3.606550547E0
7.169104167E0,2.962804636E0,-1.895275405E0,-1.881174406E0,3.988620980E0
7.179027167E0,3.304027092E0,-1.914042628E0,-1.733255930E0,4.193367421E0
7.188950167E0,3.587894794E0,-2.324078918E0,-6.818636978E-1,4.328887845E0
7.198873167E0,3.995867894E0,-2.824417122E0,6.223165306E-1,4.932704143E0
7.208796167E0,4.352477882E0,-3.267872880E0,1.313761768E0,5.599020170E0
7.218719167E0,4.237505250E0,-3.565840266E0,1.317247294E0,5.692697777E0
7.228642250E0,3.362407447E0,-3.620667268E0,9.134631389E-1,5.024881114E0
7.238565250E0,1.827774709E0,-3.374464698E0,7.895179546E-1,3.918049385E0
7.248487250E0,9.490615726E-3,-2.768607495E0,9.763294780E-1,2.935727641E0
7.258410250E0,-1.283459743E0,-2.081729956E0,1.093576384E0,2.678950882E0
7.268333250E0,-2.060222581E0,-9.837538339E-1,1.166525955E0,2.563800205E0
7.278256250E0,-2.584942943E0,3.061112411E-1,1.067812383E0,2.813513354E0
7.288179250E0,-3.056037320E0,1.340201854E0,9.000794470E-1,3.456247694E0
7.298102250E0,-3.385454832E0,2.142197329E0,7.862768430E-1,4.082712957E0
7.308025250E0,-3.672029795E0,2.626686508E0,7.105115461E-1,4.570351352E0
7.317948250E0,-3.597150936E0,2.723386298E0,8.001645648E-1,4.582203740E0
7.327871250E0,-2.539375591E0,2.061093962E0,1.129562196E0,3.460122465E0
7.337794250E0,-1.271322677E0,6.383313234E-1,1.523831177E0,2.084655771E0
7.347717250E0,-3.823839301E-1,-7.560295618E-1,1.992962352E0,2.165570849E0
7.357640250E0,9.575400352E-2,-1.740159883E0,2.241747637E0,2.839499554E0
7.367563250E0,6.066644114E-1,-2.212735068E0,2.028815432E0,3.062732480E0
7.377486250E0,1.069006677E0,-2.028359787E0,1.259844593E0,2.616147377E0
7.387409250E0,1.284812788E0,-1.435321581E0,8.353536934E-2,1.928177922E0
7.397332250E0,1.218322930E0,-9.231656431E-1,-9.578277183E-1,1.803879016E0
7.407255250E0,8.617187887E-1,-5.526520725E-1,-1.450068551E0,1.775016165E0
7.417178250E0,2.239261401E-1,-2.135664819E-1,-1.525599375E0,1.556665350E0
7.427101250E0,-5.145263261E-1,1.438257176E-1,-1.255719967E0,1.364644940E0
7.437024250E0,-1.136683520E0,4.728182830E-1,-7.514771390E-1,1.442332987E0
7.446947250E0,-1.600495191E0,6.824072696E-1,-2.639599791E-1,1.759812322E0
7.456870250E0,-1.819788582E0,7.414537688E-1,1.749606791E-1,1.972814085E0
7.466793250E0,-1.879549465E0,6.642157046E-1,5.403239492E-1,2.065390680E0
7.476716250E0,-1.844015350E0,4.352997699E-1,6.808334184E-1,2.013308880E0
7.486639250E0,-1.763821372E0,1.669958943E-1,7.817914438E-1,1.936530744E0
7.496562250E0,-1.660627372E0,1.652021147E-2,8.234157255E-1,1.853636869E0
7.506485250E0,-1.628904473E0,-4.268226229E-2,6.323643860E-1,1.747866206E0
7.516408250E0,-1.597921831E0,-2.348154098E-2,4.014902920E-1,1.647756055E0
7.526331250E0,-1.629326642E0,6.144729294E-2,8.044394642E-2,1.632468163E0
7.536254250E0,-1.593540512E0,1.671604934E-1,-2.687146425E-1,1.624660443E0
7.546177250E0,-1.477117771E0,2.695572263E-1,-5.451049250E-1,1.597397066E0
7.556100250E0,-1.323466977E0,3.367563522E-1,-7.966954118E-1,1.581041827E0
7.566023250E0,-1.227925227E0,2.599459387E-1,-9.309401742E-1,1.562696984E0
7.575945250E0,-1.159023977E0,1.157590824E-1,-8.832727951E-1,1.461816533E0
7.585868250E0,-9.702173835E-1,-3.076512516E-2,-7.337536436E-1,1.216824833E0
7.595791250E0,-7.368737179E-1,-1.334776077E-1,-6.849574596E-1,1.014872341E0
7.605714250E0,-4.156961024E-1,-1.606534195E-1,-8.878950191E-1,9.934638069E-1
7.615637250E0,-8.941679120E-2,-1.091771641E-1,-1.059232471E0,1.068591804E0
7.625560250E0,1.988053322E-1,-9.367714562E-2,-1.083317152E0,1.105384558E0
7.635483250E0,5.340338069E-1,-2.244564094E-1,-1.003682460E0,1.158857743E0
7.645406250E0,8.521901661E-1,-3.774304613E-1,-9.282852459E-1,1.315444917E0
7.655329250E0,1.247107603E0,-3.835825362E-1,-7.993848386E-1,1.530172884E0
7.665252250E0,1.598894808E0,-1.124840569E-1,-7.208558553E-1,1.757484120E0
7.675175250E0,1.661568773E0,3.535095021E-1,-6.782144505E-1,1.829140399E0
7.685098250E0,1.275598161E0,8.092464602E-1,-4.895107681E-1,1.587970810E0
7.695021250E0,6.137927520E-1,1.028804438E0,-1.312939650E-1,1.205163150E0
7.704944250E0,1.729378349E-1,9.022818739E-1,3.198307094E-1,9.727855660E-1
7.714867250E0,2.043566787E-1,6.229904953E-1,8.361410210E-1,1.062549112E0
7.724790250E0,4.573142445E-1,4.267113796E-1,1.103294749E0,1.268257948E0
7.734713250E0,8.445958024E-1,1.492765651E-1,7.383106712E-1,1.131692630E0
7.744636250E0,1.160046655E0,-3.900537229E-1,-2.125638306E-2,1.224051462E0
7.754559250E0,1.394463285E0,-9.911220565E-1,-7.033802819E-1,1.849755282E0
7.764482250E0,1.692474816E0,-1.399083170E0,-1.137502715E0,2.473017822E0
7.774405250E0,2.205950983E0,-1.577612989E0,-9.995429242E-1,2.890357856E0
7.784328250E0,3.075674025E0,-1.442381802E0,-5.143561721E-2,3.397481654E0
7.794251250E0,4.131564227E0,-1.179381277E0,1.096288323E0,4.434254306E0
7.804174250E0,4.710860746E0,-7.790716115E-1,1.961694074E0,5.162112473E0
7.814097250E0,4.288204118E0,-1.179871640E-1,2.480778304E0,4.955489534E0
7.824020250E0,3.078663706E0,4.373571859E-1,2.471455796E0,3.972095829E0
7.833943250E0,1.736974466E0,7.340793335E-1,2.182436990E0,2.884264894E0
7.843866250E0,4.601513135E-1,9.409348199E-1,2.033123075E0,2.287069524E0
7.853789250E0,-7.450943184E-1,1.010626321E0,1.943460116E0,2.313777934E0
7.863712250E0,-1.882758417E0,8.222714985E-1,1.681145251E0,2.654648570E0
7.873635250E0,-3.105004243E0,2.050841454E-1,9.858493298E-1,3.264201244E0
7.883557250E0,-4.216858732E0,-8.662959892E-1,2.274625361E-1,4.310928613E0
7.893480250E0,-4.841137295E0,-1.938401982E0,-2.869363207E-1,5.222676039E0
7.903403250E0,-5.088693788E0,-2.766326204E0,-3.998191577E-1,5.805791978E0
7.913326250E0,-4.975303413E0,-3.377674820E0,-5.713957608E-2,6.013783848E0
7.923249250E0,-4.168285326E0,-3.787088673E0,7.586966962E-1,5.682628253E0
7.933172250E0,-2.983210834E0,-3.808944104E0,1.686505394E0,5.123661046E0
7.943095250E0,-1.619468821E0,-3.327867067E0,2.484676058E0,4.457689266E0
7.953018250E0,2.052653360E-1,-2.309349051E0,2.903924929E0,3.715912659E0
7.962941250E0,2.156611007E0,-8.918584811E-1,2.318349085E0,3.289547852E0
7.972864250E0,3.545839865E0,1.723470468E-1,7.078610033E-1,3.619910365E0
7.982787250E0,4.622704030E0,8.575395644E-1,-1.400818623E0,4.905818939E0
7.992710250E0,4.923135724E0,1.230062969E0,-2.624661909E0,5.713070138E0
8.002633250E0,4.208017741E0,1.303120421E0,-3.311328510E0,5.510937547E0
8.012556250E0,2.626264046E0,1.213325899E0,-3.233954644E0,4.339111109E0
8.022479250E0,7.014688271E-1,8.968133385E-1,-2.705929436E0,2.935708908E0
8.032402250E0,-1.038673661E0,4.773903671E-1,-1.906969982E0,2.223348612E0
8.042325250E0,-2.347246025E0,1.121045727E-1,-9.547386342E-1,2.536465493E0
8.052248250E0,-3.288243703E0,-2.451524100E-1,-3.468264270E-1,3.315559519E0
8.062171250E0,-3.895342562E0,-6.634592941E-1,-1.091990912E-1,3.952947806E0
8.072094250E0,-4.150174161E0,-1.059505390E0,9.766896665E-3,4.283292265E0
8.082017250E0,-4.037877799E0,-1.358096088E0,2.024817690E-1,4.264959668E0
8.091940250E0,-3.726659161E0,-1.425982993E0,3.515655953E-1,4.005622844E0
8.101863250E0,-3.102119812E0,-1.279383649E0,3.936070758E-1,3.378593846E0
8.111786250E0,-2.274317797E0,-1.008970682E0,1.868892914E-1,2.495089355E0
8.121709250E0,-1.320875491E0,-7.093741165E-1,-2.133175367E-1,1.514406838E0
8.131632250E0,-4.445866102E-1,-4.829278265E-1,-6.831120783E-1,9.473746097E-1
8.141555250E0,2.314579386E-1,-3.559011595E-1,-1.151483992E0,1.227254577E0
8.151478250E0,6.084828955E-1,-4.316239178E-1,-1.624260614E0,1.787392845E0
8.161401250E0,7.351142907E-1,-7.744815472E-1,-1.988436899E0,2.257010410E0
8.171324250E0,6.112234855E-1,-1.320843039E0,-2.204592674E0,2.641675480E0
8.181247250E0,3.587243414E-1,-1.753165991E0,-2.239923306E0,2.866972368E0
8.191169250E0,2.602010965E-4,-1.919471476E0,-2.113624909E0,2.855132409E0
8.201092250E0,-2.748419398E-1,-1.906155611E0,-1.916949718E0,2.717289739E0
8.211015250E0,-4.284406936E-1,-1.809320019E0,-1.685773323E0,2.509787253E0
8.220938250E0,-4.725795704E-1,-1.684905450E0,-1.396597811E0,2.238911179E0
8.230861167E0,-4.510138696E-1,-1.529773410E0,-1.067432606E0,1.919122863E0
8.240784167E0,-4.283722812E-1,-1.284752270E0,-7.398289007E-1,1.543190853E0
8.250707167E0,-3.469375241E-1,-9.487095702E-1,-4.144518149E-1,1.091872612E0
8.260630167E0,-6.618872702E-2,-6.001517095E-1,-1.498533198E-1,6.221085432E-1
8.270553167E0,2.016991192E-1,-2.787206172E-1,-5.603766829E-2,3.485798867E-1
8.280476167E0,5.604497731E-1,-1.045227805E-1,3.980199695E-3,5.701270049E-1
8.290399167E0,8.967734313E-1,-1.605221495E-1,-5.282257676E-2,9.125569419E-1
8.300322167E0,1.090336735E0,-5.259245959E-1,-1.249854040E-1,1.216984892E0
8.310245167E0,1.084089569E0,-1.291390029E0,-2.405600068E-1,1.703175716E0
8.320168167E0,1.059309070E0,-2.291331148E0,-3.381102750E-1,2.546890790E0
8.330091167E0,1.224105826E0,-3.175906411E0,-5.025521055E-1,3.440548680E0
8.340014167E0,1.053175340E0,-3.436821160E0,-8.700613037E-1,3.698367837E0
8.349937167E0,1.273562745E0,-3.903516385E0,-1.291729752E0,4.304412618E0
8.359860167E0,1.972899678E0,-4.427423984E0,-1.305174547E0,5.019750678E0
8.369783167E0,2.879755463E0,-4.718011014E0,-5.087656492E-1,5.550807323E0
8.379706167E0,4.132705604E0,-4.735945886E0,9.527494115E-1,6.357371350E0
8.389629167E0,5.380258180E0,-4.430919157E0,2.198417430E0,7.308437716E0
8.399552167E0,5.872665074E0,-3.668676417E0,2.659121305E0,7.417432699E0
8.409475167E0,5.263027353E0,-2.896173567E0,2.436307890E0,6.482505256E0
8.419398167E0,4.081518493E0,-2.527227708E0,2.130561077E0,5.252138955E0
8.429321167E0,2.264090433E0,-2.182945113E0,1.760728195E0,3.604374929E0
8.439244167E0,4.750225371E-1,-1.377481070E0,1.213959737E0,1.896522806E0
8.449167167E0,-1.049255952E0,7.254501589E-2,7.108302194E-1,1.269440992E0
8.459090167E0,-2.454287494E0,1.621789288E0,1.206140256E-1,2.944193496E0
8.469013167E0,-3.551816888E0,2.804439525E0,-3.475959206E-1,4.538844256E0
8.478935167E0,-4.218239259E0,3.555968119E0,-4.642940658E-1,5.536607327E0
8.488859167E0,-4.379662757E0,4.117237672E0,-1.143551660E-1,6.012168412E0
8.498781167E0,-3.816554840E0,4.380851204E0,6.010545927E-1,5.841165529E0
8.508704167E0,-2.415559630E0,3.895422961E0,1.255255698E0,4.752358914E0
8.518627167E0,-9.160002458E-1,2.707854339E0,1.762091766E0,3.358049875E0
8.528550167E0,3.198584837E-1,1.120115435E0,2.219441679E0,2.506569249E0
8.538473167E0,9.729416013E-1,-2.397788188E-1,2.246178657E0,2.459558456E0
8.548396167E0,1.042224090E0,-1.188771321E0,2.001424150E0,2.550511113E0
8.558319167E0,8.326920408E-1,-1.867698913E0,1.399762031E0,2.478105931E0
8.568242167E0,2.301838303E-1,-2.225610199E0,3.981234652E-1,2.272625716E0
8.578165167E0,-4.040092725E-1,-2.256412161E0,-6.350374407E-1,2.378632356E0
8.588088167E0,-9.134912056E-1,-2.129362105E0,-1.352790179E0,2.683037537E0
8.598011167E0,-1.415705634E0,-1.838942598E0,-1.630317160E0,2.836171075E0
8.607934167E0,-1.573474038E0,-1.338206638E0,-1.320737497E0,2.451726960E0
8.617857167E0,-1.395432753E0,-6.858266482E-1,-7.186046773E-1,1.712887457E0
8.627780167E0,-1.519121829E0,1.002575290E-1,-2.600046301E-1,1.544469201E0
8.637703167E0,-1.610848271E0,7.960159653E-1,1.037459779E-1,1.799787986E0
8.647626167E0,-1.560628290E0,1.266867099E0,4.937751424E-1,2.069861540E0
8.657549167E0,-1.489279979E0,1.603730747E0,8.273523635E-1,2.339747657E0
8.667472167E0,-1.589925764E0,1.803562558E0,1.122855440E0,2.653583647E0
8.677395167E0,-1.742152761E0,1.862104589E0,1.161427767E0,2.802042862E0
8.687318167E0,-1.822411643E0,1.753047293E0,8.161227858E-1,2.657144220E0
8.697241167E0,-1.568312116E0,1.503100166E0,3.727366090E-1,2.204052082E0
8.707164167E0,-1.333842276E0,1.271513004E0,-1.278657424E-1,1.847222289E0
8.717087167E0,-1.117560201E0,1.002024190E0,-6.629871315E-1,1.640897687E0
8.727010167E0,-7.985109723E-1,6.662981173E-1,-1.188337238E0,1.579151147E0
8.736933167E0,-7.580757219E-1,4.276554126E-1,-1.660981128E0,1.875213657E0
8.746856167E0,-7.277099615E-1,2.800944936E-1,-1.978251634E0,2.126380550E0
8.756779167E0,-5.521701157E-1,2.242141154E-1,-2.058383047E0,2.142919638E0
8.766702167E0,-3.903881836E-1,3.513410622E-1,-1.914016462E0,1.984767617E0
8.776624167E0,-3.367060661E-1,6.350188757E-1,-1.693735476E0,1.839934730E0
8.786547167E0,-3.124506462E-1,9.427826131E-1,-1.454151662E0,1.760971754E0
8.796470167E0,-2.364532149E-1,1.116659292E0,-1.229527949E0,1.677670133E0
8.806393167E0,-2.461093068E-2,9.861669798E-1,-1.070024677E0,1.455363810E0
8.816316167E0,1.904882526E-1,6.967246887E-1,-1.028988333E0,1.257190541E0
8.826239167E0,3.140188694E-1,4.528455099E-1,-1.027066938E0,1.165565700E0
8.836162167E0,4.266233790E-1,3.127488542E-1,-1.050824175E0,1.176456884E0
8.846085167E0,7.337980825E-1,2.755178779E-1,-9.085953319E-1,1.199964668E0
8.856008167E0,9.891559303E-1,3.967347515E-1,-6.903848451E-1,1.269826426E0
8.865931167E0,1.022147090E0,5.497803587E-1,-4.043045568E-1,1.229026156E0
8.875854167E0,9.131321865E-1,5.936311139E-1,-8.443291694E-2,1.092399747E0
8.885777167E0,7.964925134E-1,5.103626700E-1,1.632422742E-1,9.599575089E-1
8.895700167E0,8.634729534E-1,5.055884184E-1,3.368455222E-1,1.055779378E0
8.905623167E0,1.239129662E0,7.785788374E-1,5.945887417E-1,1.579608526E0
8.915546167E0,1.728331697E0,1.176436400E0,5.970679611E-1,2.174309824E0
8.925469167E0,2.249466546E0,1.412521972E0,8.346227914E-2,2.657495816E0
8.935392167E0,2.786704043E0,1.492992231E0,-5.507425180E-1,3.209059448E0
8.945315167E0,3.476748580E0,1.510689852E0,-3.947835356E-1,3.811275188E0
8.955238167E0,4.272085683E0,1.183687533E0,7.393558609E-1,4.494271838E0
8.965161167E0,4.784724528E0,3.539025081E-1,1.888294853E0,5.156015249E0
8.975084167E0,4.757949543E0,9.216644436E-2,2.552703150E0,5.400265908E0
8.985007167E0,4.095238400E0,1.093424649E0,2.684768947E0,5.017423574E0
8.994930167E0,3.258221174E0,2.337096136E0,2.890969253E0,4.943250630E0
9.004853167E0,2.165151451E0,2.958069561E0,2.997030144E0,4.735002219E0
9.014776167E0,9.364310020E-1,2.876022016E0,2.763785881E0,4.097184161E0
9.024699167E0,-3.712075621E-1,2.368604150E0,2.211338607E0,3.261609895E0
9.034622167E0,-1.574646404E0,1.348261510E0,1.349792896E0,2.473714062E0
9.044545167E0,-2.639952963E0,-1.495185667E-1,2.277104580E-1,2.653970516E0
9.054467167E0,-3.107957087E0,-1.526853895E0,-3.899537355E-1,3.484644026E0
9.064390167E0,-3.574983557E0,-2.535955847E0,-5.668559825E-1,4.419604642E0
9.074313167E0,-4.090183482E0,-3.140934214E0,-1.991880324E-1,5.160886021E0
9.084236167E0,-4.278594219E0,-3.447920345E0,6.608143061E-1,5.534545938E0
9.094159167E0,-4.217287332E0,-3.392466229E0,1.708872456E0,5.675789339E0
9.104082167E0,-3.766082844E0,-2.824595169E0,2.773823504E0,5.464047464E0
9.114005167E0,-2.941372837E0,-1.882984704E0,3.409115006E0,4.880509265E0
9.123928167E0,-1.830938637E0,-7.017903509E-1,3.508152806E0,4.018952861E0
9.133851167E0,-7.131603348E-1,4.531095117E-1,3.290470322E0,3.397219574E0
9.143774167E0,1.476012647E-1,1.398928218E0,2.361492766E0,2.748715041E0
9.153697167E0,7.006519711E-1,2.101933109E0,1.141371818E0,2.492341390E0
9.163620167E0,1.037983105E0,2.560609755E0,-1.056276119E-1,2.765011471E0
9.173543167E0,1.239441903E0,2.607738313E0,-1.284632694E0,3.160189314E0
9.183466167E0,1.032714763E0,2.465013041E0,-2.115982799E0,3.408837380E0
9.193389167E0,8.281282890E-1,2.019026316E0,-2.708522676E0,3.478269514E0
9.203312167E0,4.309859866E-1,1.125784676E0,-2.846917500E0,3.091614353E0
9.213235167E0,-1.410482901E-1,6.433983743E-2,-2.565478147E0,2.570158041E0
9.223158167E0,-7.044959307E-1,-7.358510399E-1,-2.034258605E0,2.275082271E0
9.233080625E0,-1.232074996E0,-1.298721560E0,-1.443987447E0,2.299953529E0
9.243003625E0,-1.623100526E0,-1.649931499E0,-9.815317458E-1,2.513987637E0
9.252926625E0,-1.758081746E0,-1.766581112E0,-5.933830458E-1,2.561984326E0
9.262849625E0,-1.793887171E0,-1.714781652E0,-2.743987209E-1,2.496758289E0
9.272772625E0,-1.722436534E0,-1.524696418E0,-1.011065447E-1,2.302544096E0
9.282695625E0,-1.670794510E0,-1.270248251E0,-1.602908921E-1,2.104941350E0
9.292618625E0,-1.613608156E0,-8.897406927E-1,-3.294251132E-1,1.871868235E0
9.302541625E0,-1.435469223E0,-4.307503438E-1,-6.001114368E-1,1.614388889E0
9.312464625E0,-1.167787784E0,9.846711159E-4,-8.941269815E-1,1.470779500E0
9.322386625E0,-9.340353978E-1,3.260208642E-1,-1.133962226E0,1.504852836E0
9.332309625E0,-8.436257493E-1,4.874010926E-1,-1.305958074E0,1.629352854E0
9.342232625E0,-8.507154983E-1,4.297089547E-1,-1.390622833E0,1.685882116E0
9.352155625E0,-8.533093232E-1,1.962287566E-1,-1.373228536E0,1.628618783E0
9.362078625E0,-8.655118775E-1,-6.547127366E-2,-1.169163049E0,1.456138569E0
9.372001625E0,-8.289001215E-1,-3.549894324E-1,-8.885656947E-1,1.265954937E0
9.381924625E0,-6.656014216E-1,-5.564305432E-1,-6.090717101E-1,1.060004033E0
9.391847625E0,-4.457262325E-1,-5.287271664E-1,-3.242292774E-1,7.637728164E-1
9.401770625E0,-3.606773114E-1,-3.148447886E-1,-1.800585741E-1,5.115041095E-1
9.411693625E0,-1.075302958E-2,-2.677995533E-2,5.113507032E-2,5.871617383E-2
9.421616625E0,2.238109499E-1,2.542819601E-1,3.542827964E-2,3.405962706E-1
9.431539625E0,3.145708466E-1,3.982374859E-1,-1.491004908E-1,5.289412718E-1
9.441462625E0,4.415694469E-1,2.096025082E-1,-3.051579988E-1,5.762275524E-1
9.451385625E0,5.778914326E-1,-3.620461446E-1,-3.605936962E-1,7.714037416E-1
9.461308625E0,1.149697083E0,-1.215984336E0,-2.082491702E-1,1.686353760E0
9.471231625E0,1.167241654E0,-1.917266929E0,-4.255205941E-1,2.284607916E0
9.481154625E0,9.571494412E-1,-2.525762396E0,-6.799083889E-1,2.785298216E0
9.491077625E0,1.203269273E0,-3.068572874E0,-7.244840527E-1,3.374740519E0
9.501000625E0,1.429635456E0,-3.144540484E0,-8.634279299E-1,3.560547737E0
9.510923625E0,1.953506802E0,-2.731003174E0,-1.092844605E0,3.531129634E0
9.520846625E0,2.520875586E0,-2.115072680E0,-1.383884502E0,3.569801461E0
9.530769625E0,3.394431478E0,-1.658561258E0,-1.380042297E0,4.022127204E0
9.540692625E0,3.893139331E0,-1.354946924E0,-6.929897797E-1,4.180029887E0
9.550615625E0,4.409470693E0,-1.027817720E0,8.301327145E-1,4.603146900E0
9.560537625E0,5.276017528E0,-2.674566141E-1,2.077686460E0,5.676678168E0
9.570460625E0,5.430409749E0,2.953475404E-1,2.349411249E0,5.924214161E0
9.580383625E0,4.469273091E0,-1.684497314E-1,2.155925129E0,4.964956237E0
9.590306625E0,2.944972383E0,-1.289207263E0,2.060463486E0,3.818432595E0
9.600229625E0,1.230374041E0,-1.932726675E0,2.021733284E0,3.055594566E0
9.610152625E0,-9.114218760E-1,-1.642645429E0,1.629890898E0,2.487070200E0
9.620075625E0,-2.906418182E0,-7.510818672E-1,1.078936418E0,3.189905079E0
9.629998625E0,-4.146157708E0,5.317520041E-1,7.689316624E-1,4.250251738E0
9.639921625E0,-5.096013333E0,1.876041720E0,4.895622236E-1,5.452389897E0
9.649844625E0,-5.670380064E0,2.761538796E0,3.405020785E-1,6.316268539E0
9.659767625E0,-5.296279299E0,3.248822067E0,6.338323295E-1,6.245571444E0
9.669690625E0,-3.475759231E0,3.152749975E0,1.684140780E0,4.985685991E0
9.679613625E0,-1.259293200E0,2.495317698E0,2.876264675E0,4.010651850E0
9.689536625E0,3.616912186E-1,1.708745279E0,3.513315897E0,3.923521321E0
9.699459625E0,1.146151332E0,8.784704769E-1,3.458642676E0,3.748010461E0
9.709382625E0,1.465428017E0,-1.650467250E-1,3.123384381E0,3.454019352E0
9.719305625E0,1.542862110E0,-1.251169956E0,2.472896842E0,3.171918748E0
9.729228625E0,1.046517116E0,-2.143363117E0,1.312766572E0,2.722601623E0
9.739151625E0,3.417498744E-1,-2.574115361E0,-1.399905288E-1,2.600473076E0
9.749074625E0,3.314330471E-1,-2.436415772E0,-1.443117381E0,2.851062513E0
9.758997625E0,4.446392351E-1,-1.669212546E0,-2.551183459E0,3.080991985E0
9.768920625E0,4.726187468E-1,-5.857180770E-1,-3.487496347E0,3.567781512E0
9.778843625E0,4.729403436E-2,4.785338632E-1,-4.031414872E0,4.059992272E0
9.788766625E0,-8.795171285E-1,1.402542967E0,-4.030170584E0,4.356942976E0
9.798689625E0,-1.607418294E0,2.128163719E0,-3.114745705E0,4.100550596E0
9.808612625E0,-1.822586474E0,2.496652910E0,-1.569204985E0,3.466626818E0
9.818534625E0,-1.880680316E0,2.450100303E0,-1.274657929E-1,3.091309993E0
9.828457625E0,-2.063729741E0,2.246021951E0,6.624217057E-1,3.121281398E0
9.838380625E0,-2.189595151E0,1.865733663E0,8.534917563E-1,3.000622803E0
9.848303625E0,-2.026140915E0,1.428923558E0,8.236072218E-1,2.612546344E0
9.858226625E0,-1.966363660E0,1.094670106E0,7.257306790E-1,2.364650863E0
9.868149625E0,-1.993029302E0,8.302244427E-1,4.931752181E-1,2.214646749E0
9.878072625E0,-1.921835943E0,6.026041049E-1,8.863209486E-2,2.016045820E0
9.887995625E0,-1.715240366E0,4.585059071E-1,-3.412762499E-1,1.807967549E0
9.897918625E0,-1.473848008E0,4.353895247E-1,-7.368702096E-1,1.704338492E0
9.907841625E0,-1.177237469E0,4.958158207E-1,-9.913591611E-1,1.616946002E0
9.917764625E0,-8.317909849E-1,6.598976089E-1,-1.039091152E0,1.485614862E0
9.927687625E0,-5.975573730E-1,9.009805030E-1,-9.805254400E-1,1.459544730E0
9.937610625E0,-4.155154234E-1,1.024783381E0,-8.643365872E-1,1.403535457E0
9.947533625E0,-1.885481465E-1,9.328770643E-1,-7.869586283E-1,1.234955021E0
9.957456625E0,4.398041725E-2,6.822946376E-1,-7.196150762E-1,9.926258648E-1
9.967379625E0,2.681685126E-1,2.838101068E-1,-6.461997753E-1,7.550077334E-1
9.977302625E0,5.389372820E-1,-1.667365703E-1,-5.907775265E-1,8.168675312E-1
9.987225625E0,8.242925155E-1,-5.699827811E-1,-5.372743338E-1,1.137102560E0
9.997148625E0,1.034985237E0,-8.111248782E-1,-6.358554661E-1,1.460626641E0
1.000707162E1,1.369982162E0,-8.523062333E-1,-7.343056208E-1,1.772704652E0
1.001699462E1,1.714701837E0,-5.909684381E-1,-7.270796317E-1,1.953993571E0
1.002691762E1,1.839244607E0,-4.065941803E-2,-7.280055383E-1,1.978500942E0
1.003684062E1,1.800333141E0,7.299722493E-1,-6.702125359E-1,2.055053222E0
1.004676362E1,1.625251132E0,1.615458508E0,-2.883156788E-1,2.309604590E0
1.005668663E1,1.423825078E0,2.448595229E0,1.924318671E-1,2.839000964E0
1.006660963E1,1.559064159E0,3.037815935E0,3.742659482E-1,3.434979142E0
1.007653263E1,1.976571729E0,3.161914024E0,1.063199222E-1,3.730394084E0
1.008645463E1,2.496281027E0,2.854680556E0,-3.802163672E-1,3.811192009E0
1.009637763E1,3.399131470E0,2.113499486E0,-5.006444514E-2,4.002934083E0
1.010630063E1,4.460857778E0,9.700633094E-1,1.250327080E0,4.733243365E0
1.011622363E1,5.051707225E0,-5.266853186E-1,2.056590875E0,5.479663251E0
1.012614663E1,4.812277778E0,-1.043417214E0,2.455725324E0,5.502483418E0
1.013606963E1,4.124546399E0,-2.381337047E-2,2.704917283E0,4.932446410E0
1.014599262E1,2.922695661E0,1.473611780E0,2.539936339E0,4.143061454E0
1.015591562E1,1.712340732E0,2.271553819E0,2.367317178E0,3.700845600E0
1.016583862E1,5.840707701E-1,2.199006829E0,2.297597317E0,3.233531062E0
1.017576162E1,-9.622908980E-1,1.515584264E0,1.814264717E0,2.552362807E0
1.018568462E1,-2.484128759E0,2.552417806E-1,1.298264893E0,2.814522302E0
1.019560762E1,-3.306959471E0,-1.214181785E0,8.448337841E-1,3.622700991E0
1.020553062E1,-3.549855148E0,-2.432183849E0,6.316431320E-1,4.349248543E0
1.021545362E1,-3.743991478E0,-3.225172419E0,4.942376572E-1,4.966234004E0
1.022537662E1,-3.980173382E0,-3.750880668E0,6.385966408E-1,5.506241150E0
1.023530017E1,-3.788481188E0,-4.025973161E0,1.306598929E0,5.680514973E0
1.024522317E1,-3.218340824E0,-3.454011682E0,2.187137566E0,5.203026532E0
1.025514617E1,-2.510701430E0,-2.339695223E0,2.630820782E0,4.324235585E0
1.026506917E1,-1.584463879E0,-1.007254451E0,2.542712597E0,3.160771214E0
1.027499217E1,-4.883927804E-1,4.170942447E-1,2.454660546E0,2.537292556E0
1.028491517E1,3.912611729E-1,1.753034137E0,2.042238885E0,2.719734114E0
1.029483817E1,1.060467403E0,2.925759894E0,6.922857749E-1,3.188090598E0
1.030476117E1,1.429066522E0,3.593013739E0,-7.526629543E-1,3.939350248E0
1.031468417E1,1.773620136E0,3.415706280E0,-1.621733447E0,4.176457488E0
1.032460617E1,1.830321171E0,2.712573920E0,-2.062256827E0,3.867949855E0
1.033452917E1,1.209890660E0,1.701260550E0,-2.214653978E0,3.043487328E0
1.034445217E1,3.425854415E-1,5.733315546E-1,-2.149099090E0,2.250489003E0
1.035437517E1,-3.357441992E-1,-3.732411506E-1,-1.773910743E0,1.843581419E0
1.036429817E1,-9.224883163E-1,-9.179649103E-1,-1.389315981E0,1.903639452E0
1.037422117E1,-1.528658638E0,-1.236192898E0,-1.186752058E0,2.296377704E0
1.038414417E1,-1.967727816E0,-1.485224351E0,-8.920523894E-1,2.621755441E0
1.039406717E1,-2.182768527E0,-1.653968855E0,-5.194262928E-1,2.787453154E0
1.040399017E1,-2.246516626E0,-1.642738400E0,-1.900169671E-1,2.789539899E0
1.041391317E1,-2.190530705E0,-1.472027477E0,-1.037413001E-2,2.639203912E0
1.042383617E1,-2.070726519E0,-1.171377024E0,4.724199414E-2,2.379551272E0
1.043375917E1,-1.949224302E0,-6.951438940E-1,-3.091773748E-2,2.069699572E0
1.044368217E1,-1.731293896E0,-2.704375246E-1,-1.247801667E-1,1.756725676E0
1.045360517E1,-1.595140895E0,4.886693537E-2,-2.302738774E-1,1.612416978E0
1.046352817E1,-1.498166578E0,2.230640412E-1,-4.071550745E-1,1.568450164E0
1.047345117E1,-1.393331264E0,2.120686445E-1,-6.648705196E-1,1.558331777E0
1.048337417E1,-1.264256902E0,6.555371940E-2,-8.703323221E-1,1.536268582E0
1.049329717E1,-1.204279672E0,-1.583355832E-1,-9.112213165E-1,1.518447883E0
1.050322017E1,-1.222515383E0,-3.766807752E-1,-9.069785768E-1,1.568133415E0
1.051314317E1,-1.154034548E0,-5.722947702E-1,-8.310331857E-1,1.532949183E0
1.052306617E1,-9.773281825E-1,-7.107512820E-1,-7.395651913E-1,1.416790187E0
1.053298917E1,-7.488096392E-1,-7.544425544E-1,-6.645378131E-1,1.253598799E0
1.054291217E1,-5.942256296E-1,-6.934601882E-1,-6.288475782E-1,1.108801338E0
1.055283517E1,-2.475757885E-1,-6.311417332E-1,-4.322869921E-1,8.040557829E-1
1.056275817E1,7.002742410E-2,-4.840591165E-1,-3.272160351E-1,5.884618952E-1
1.057268017E1,2.040947235E-1,-2.669902986E-1,-3.494717073E-1,4.848390970E-1
1.058260317E1,3.295870811E-1,-2.585894577E-2,-4.217599574E-1,5.358897188E-1
1.059252617E1,4.862538689E-1,1.132255570E-1,-5.032830074E-1,7.089122917E-1
1.060244917E1,7.178655893E-1,1.084339830E-1,-5.156864136E-1,8.905174957E-1
1.061237217E1,9.005331910E-1,-7.445932120E-2,-5.338689154E-1,1.049533343E0
1.062229517E1,9.368970251E-1,-6.438456863E-1,-4.035210299E-1,1.206292885E0
1.063221817E1,9.230274296E-1,-1.623520649E0,-1.021122658E-1,1.870354471E0
1.064214117E1,7.701736110E-1,-2.517141261E0,-3.122413158E-2,2.632516376E0
1.065206417E1,1.156610246E0,-2.860771016E0,-6.826185733E-2,3.086489551E0
1.066198717E1,1.660508673E0,-2.539427047E0,-4.884325415E-1,3.073197867E0
1.067191017E1,2.578951886E0,-2.133265122E0,-9.265971547E-1,3.472807970E0
1.068183317E1,3.157715138E0,-1.603755890E0,-1.531675801E0,3.858656322E0
1.069175617E1,3.572171631E0,-1.113325355E0,-1.890636955E0,4.192184586E0
1.070167917E1,3.988321477E0,-9.598660576E-1,-1.237173184E0,4.284699352E0
1.071160217E1,4.098840870E0,-1.221743843E0,6.404583943E-1,4.324735998E0
1.072152517E1,4.528081462E0,-1.145713960E0,2.440490988E0,5.269931543E0
1.073144817E1,4.512092251E0,-1.118853021E0,3.110688906E0,5.593495690E0
1.074137117E1,3.600180379E0,-1.638497999E0,2.885059180E0,4.895869782E0
1.075129417E1,2.224078521E0,-2.397064887E0,2.494140946E0,4.112564212E0
1.076121717E1,5.193245512E-1,-2.739784815E0,2.277200767E0,3.600244735E0
1.077114017E1,-1.367224615E0,-2.456764082E0,1.882693805E0,3.383715246E0
1.078106317E1,-2.676103374E0,-1.868369881E0,1.481490319E0,3.584291958E0
1.079098617E1,-3.647491955E0,-5.632923970E-1,1.226961606E0,3.889335504E0
1.080090817E1,-4.417355078E0,1.141117756E0,9.045437962E-1,4.651169219E0
1.081083117E1,-4.779542726E0,2.491058002E0,6.051724944E-1,5.423618016E0
1.082075417E1,-4.316335073E0,3.552722915E0,8.490391016E-1,5.654507579E0
1.083067717E1,-2.979348164E0,4.239988855E0,1.652212644E0,5.439101726E0
1.084060017E1,-1.427347441E0,4.215486682E0,2.367374480E0,5.041042612E0
1.085052317E1,3.268172550E-1,3.748915711E0,2.976376901E0,4.797916004E0
1.086044617E1,1.707766455E0,2.664415959E0,3.463932360E0,4.691951200E0
1.087036917E1,2.305665890E0,1.023453724E0,3.529947425E0,4.338672786E0
1.088029217E1,1.818582301E0,-7.688354757E-1,2.987694479E0,3.581154545E0
1.089021517E1,4.765036368E-1,-2.260521000E0,1.642330557E0,2.834477124E0
1.090013817E1,-3.595604932E-1,-3.362576724E0,2.299791777E-1,3.389556961E0
1.091006117E1,-7.016489214E-1,-3.893563547E0,-8.123793983E-1,4.038825150E0
1.091998417E1,-8.578748292E-1,-3.758001699E0,-1.495973872E0,4.134787034E0
1.092990717E1,-8.079320061E-1,-3.096034614E0,-2.105159603E0,3.830128120E0
1.093983017E1,-9.396241665E-1,-2.051697925E0,-2.724632925E0,3.537793454E0
1.094975317E1,-1.279566082E0,-8.297067448E-1,-2.870199943E0,3.250192356E0
1.095967617E1,-1.625389711E0,2.304400114E-1,-2.220268767E0,2.761265599E0
1.096959917E1,-1.806814780E0,1.023204267E0,-1.075865461E0,2.338592121E0
1.097952217E1,-1.997355072E0,1.551606328E0,-7.636814475E-2,2.530363922E0
1.098944517E1,-2.046445956E0,1.840019656E0,6.476069078E-1,2.827190848E0
1.099936817E1,-1.965615216E0,1.956293585E0,1.050018429E0,2.965344242E0
1.100929117E1,-1.919065533E0,1.814633676E0,1.135349185E0,2.874843591E0
1.101921417E1,-2.006756811E0,1.323905226E0,9.661415818E-1,2.590989676E0
1.102913617E1,-2.095090113E0,7.319728741E-1,6.708779490E-1,2.318461579E0
1.103905917E1,-2.099757360E0,2.754251996E-1,5.177721155E-1,2.180121092E0
1.104898217E1,-2.015025943E0,8.163370863E-3,3.125023940E-1,2.039130682E0
1.105890517E1,-1.786878113E0,-3.835707687E-2,4.335973531E-2,1.787815629E0
1.106882817E1,-1.414912752E0,6.417962372E-2,-1.640331101E-1,1.425834486E0
1.107875117E1,-1.073033069E0,2.121460471E-1,-3.328445649E-1,1.143324721E0
1.108867417E1,-8.093137032E-1,3.050174464E-1,-4.985657662E-1,9.982946138E-1
1.109859717E1,-6.450700933E-1,3.658167947E-1,-5.915198305E-1,9.485953101E-1
1.110852017E1,-5.572121698E-1,3.842703149E-1,-5.677251711E-1,8.834370080E-1
1.111844317E1,-4.328763914E-1,3.492556527E-1,-4.549051917E-1,7.185403361E-1
1.112836617E1,-1.920792800E-1,2.572956882E-1,-2.703825608E-1,4.197645175E-1
1.113828917E1,1.632419819E-1,8.550895080E-2,-3.356447965E-2,1.873133727E-1
1.114821217E1,5.659134114E-1,-2.609945637E-1,9.518214583E-2,6.304250886E-1
1.115813517E1,8.063579357E-1,-6.759810334E-1,1.205394736E-1,1.059100204E0
1.116805817E1,9.744227010E-1,-8.744645494E-1,1.819004470E-1,1.321845536E0
1.117798117E1,9.520237720E-1,-5.809945500E-1,1.932329357E-1,1.131920005E0
1.118790417E1,6.779712063E-1,4.311714895E-1,2.842255515E-1,8.522546416E-1
1.119782717E1,-8.426656365E-2,1.561764988E0,6.314709315E-1,1.686702780E0
1.120775017E1,-8.335112357E-1,2.307215987E0,1.274684241E0,2.764562625E0
1.121767317E1,-1.024400023E0,2.767181944E0,1.930664947E0,3.526210211E0
1.122759617E1,-5.959616679E-1,2.778936017E0,2.056740272E0,3.508252591E0
1.123751900E1,1.364284050E-1,2.070792885E0,1.244335438E0,2.419745145E0
1.124744200E1,8.827418679E-1,9.506651714E-1,4.107745010E-1,1.360784026E0
1.125736400E1,1.423776546E0,-1.809645271E-1,-1.982437071E-1,1.448857612E0
1.126728700E1,1.721336088E0,-1.200559308E0,-7.493174699E-1,2.228411374E0
1.127721000E1,1.923781312E0,-1.990526109E0,-1.267509415E0,3.044619656E0
1.128713300E1,2.037379264E0,-2.433384575E0,-1.816414738E0,3.656724936E0
1.129705600E1,2.117384377E0,-2.444500132E0,-2.269806086E0,3.951065320E0
1.130697900E1,2.180683994E0,-1.946146620E0,-2.121547009E0,3.611624435E0
1.131690200E1,2.163573872E0,-1.183230280E0,-5.834328389E-1,2.534063865E0
1.132682500E1,2.175005763E0,-7.610358748E-1,1.462455293E0,2.729212552E0
1.133674800E1,2.358464493E0,-9.091359070E-1,2.650831708E0,3.662757377E0
1.134667100E1,1.914426937E0,-1.431153101E0,3.031859376E0,3.860751348E0
1.135659400E1,9.513484186E-1,-1.523306389E0,3.624011875E0,4.044624611E0
1.136651700E1,-1.351063496E-1,-8.101323134E-1,4.175937577E0,4.255939701E0
1.137644000E1,-7.265457809E-1,-8.742464483E-2,4.383064082E0,4.443732957E0
1.138636300E1,-9.600426435E-1,9.853318512E-2,4.228638532E0,4.337369537E0
1.139628600E1,-1.548923333E0,-1.918304810E-1,3.684493135E0,4.001431255E0
1.140620900E1,-2.319440761E0,-7.341074002E-1,3.001352990E0,3.863526742E0
1.141613200E1,-3.085117863E0,-1.349185370E0,2.289142536E0,4.071661447E0
1.142605500E1,-3.732463692E0,-1.702178563E0,1.626072081E0,4.412800414E0
1.143597800E1,-4.176054522E0,-1.963008235E0,8.662866336E-1,4.695027714E0
1.144590100E1,-4.523931693E0,-2.186720660E0,4.699494928E-1,5.046638261E0
1.145582400E1,-4.594663122E0,-2.267196181E0,6.649640751E-1,5.166554457E0
1.146574700E1,-4.153396561E0,-2.252615564E0,1.215289979E0,4.878720079E0
1.147567000E1,-3.274270027E0,-2.020349833E0,2.092034943E0,4.379414100E0
1.148559200E1,-2.031669458E0,-1.684522018E0,2.960794364E0,3.966307915E0
1.149551500E1,-6.869431740E-1,-1.388352652E0,3.423589788E0,3.757709548E0
1.150543800E1,4.258252341E-1,-1.308018925E0,3.131395651E0,3.420216274E0
1.151536100E1,1.398755726E0,-1.222640368E0,2.362271615E0,3.005277730E0
1.152528400E1,1.910398790E0,-8.648139393E-1,1.153287858E0,2.393240391E0
1.153520700E1,1.340375955E0,-3.605434833E-1,-4.547736293E-1,1.460622593E0
1.154513000E1,4.091057056E-1,-1.655655923E-1,-1.583246489E0,1.643608496E0
1.155505300E1,-2.768796945E-1,-5.157049786E-1,-1.723627027E0,1.820303304E0
1.156497600E1,-6.814426982E-1,-1.070064730E0,-1.075502933E0,1.663162421E0
1.157489900E1,-1.043085970E0,-1.446166412E0,-2.575634176E-1,1.801600551E0
1.158482200E1,-1.346886830E0,-1.622970280E0,4.703079271E-1,2.160862376E0
1.159474500E1,-1.552790097E0,-1.615433950E0,9.614290184E-1,2.438263663E0
1.160466800E1,-1.860553615E0,-1.513852172E0,1.208845178E0,2.686022118E0
1.161459100E1,-2.196862071E0,-1.390814914E0,1.430567502E0,2.967674588E0
1.162451400E1,-2.510825976E0,-1.311486617E0,1.623793421E0,3.265110918E0
1.163443700E1,-2.603807815E0,-1.430829311E0,1.823760595E0,3.486142620E0
1.164436000E1,-2.474779061E0,-1.722036438E0,2.157327876E0,3.707290717E0
1.165428300E1,-2.230060807E0,-2.068693004E0,2.440620797E0,3.899909207E0
1.166420600E1,-1.898750551E0,-2.316606615E0,2.519578673E0,3.914102267E0
1.167412900E1,-1.500761572E0,-2.343465508E0,2.371430694E0,3.656200134E0
1.168405200E1,-1.047308829E0,-2.088236884E0,1.957701010E0,3.047980038E0
1.169397500E1,-6.830313867E-1,-1.660641259E0,1.398884364E0,2.276211486E0
1.170389800E1,-3.984210885E-1,-1.162819551E0,8.444414359E-1,1.491298096E0
1.171382000E1,-3.096088994E-1,-5.839726100E-1,4.137320226E-1,7.797793703E-1
1.172374300E1,-2.840249920E-1,-2.098067223E-1,9.356831431E-2,3.652999948E-1
1.173366600E1,-3.105573177E-2,-1.734004227E-1,1.002253693E-1,2.026753308E-1
1.174358900E1,1.814619058E-1,-1.160998289E-1,3.219126105E-1,3.873439329E-1
1.175351200E1,1.057299381E-1,2.387921011E-1,3.526917690E-1,4.388530179E-1
1.176343500E1,-9.895301521E-2,5.573737722E-1,2.696209610E-2,5.667311318E-1
1.177335800E1,-5.169184220E-1,4.425121643E-1,-3.887094480E-1,7.836559867E-1
1.178328100E1,-7.478512806E-1,-4.385952607E-2,-4.330330968E-1,8.652877318E-1
1.179320400E1,-7.616799456E-1,-7.720379958E-1,-3.817389822E-1,1.149749389E0
1.180312700E1,-1.053311580E0,-1.542287036E0,-4.995182776E-1,1.933295915E0
1.181305000E1,-1.349879435E0,-2.204267715E0,-3.005802137E-1,2.602175842E0
1.182297300E1,-1.440974962E0,-2.559111698E0,3.702854562E-1,2.960164327E0
1.183289600E1,-1.381151513E0,-2.696510156E0,9.858592701E-1,3.186010833E0
1.184281900E1,-1.148902447E0,-2.823110269E0,1.281921340E0,3.306546650E0
1.185274200E1,-8.002826786E-1,-2.937273939E0,1.348819335E0,3.329766381E0
1.186266500E1,-5.049053174E-1,-2.919522377E0,1.296589081E0,3.234143400E0
1.187258800E1,-1.645692998E-1,-2.852298692E0,1.351780365E0,3.160696290E0
1.188251100E1,2.520149946E-3,-2.750757115E0,1.331947194E0,3.056264776E0
1.189243400E1,2.691941142E-2,-2.586077887E0,1.161231886E0,2.834957317E0
1.190235700E1,-1.128652954E-1,-2.268568523E0,9.554993570E-1,2.464167352E0
1.191228000E1,-3.328621066E-1,-1.808786753E0,8.737418336E-1,2.036156058E0
1.192220200E1,-5.154957944E-1,-1.352182068E0,8.756509495E-1,1.691418590E0
1.193212500E1,-6.824753165E-1,-1.030344594E0,8.652405667E-1,1.508649654E0
1.194204800E1,-8.310203218E-1,-8.562702070E-1,8.155082434E-1,1.445284449E0
1.195197100E1,-9.581873220E-1,-8.453886849E-1,7.504427665E-1,1.481880332E0
1.196189400E1,-1.066747897E0,-1.047254815E0,6.496905631E-1,1.629966733E0
1.197181700E1,-1.089833289E0,-1.400211390E0,4.805370462E-1,1.838272120E0
1.198174000E1,-1.112914588E0,-1.684598617E0,2.396797085E-1,2.033198894E0
1.199166300E1,-1.134827029E0,-1.724729520E0,2.968631387E-2,2.064801584E0
1.200158600E1,-1.126850842E0,-1.494251867E0,-1.788213032E-1,1.880042159E0
1.201150900E1,-1.144421141E0,-1.167311236E0,-3.392355716E-1,1.669549652E0
1.202143200E1,-1.073148844E0,-8.800894247E-1,-3.535969180E-1,1.432213887E0
1.203135500E1,-9.253171992E-1,-6.997848290E-1,-2.255692077E-1,1.181859634E0
1.204127800E1,-8.051902467E-1,-6.689648131E-1,-1.043850785E-1,1.052017823E0
1.205120100E1,-7.843338132E-1,-7.356139353E-1,-2.773158967E-2,1.075674873E0
1.206112400E1,-8.200012439E-1,-8.530510224E-1,2.766317725E-3,1.183260639E0
1.207104700E1,-8.214104229E-1,-1.000556831E0,6.606418133E-2,1.296222794E0
1.208097000E1,-8.137862384E-1,-1.173410028E0,1.243930811E-1,1.433392052E0
1.209089300E1,-7.979987562E-1,-1.367987384E0,1.619754750E-1,1.591988553E0
1.210081600E1,-7.241875988E-1,-1.531672001E0,2.335138196E-1,1.710261822E0
1.211073900E1,-6.022146803E-1,-1.665188785E0,2.152640748E-1,1.783775443E0
1.212066200E1,-4.844055641E-1,-1.768522826E0,1.462838870E-1,1.839489253E0
1.213058500E1,-3.676898772E-1,-1.841170972E0,1.147106767E-1,1.881027627E0
1.214050800E1,-2.998458034E-1,-1.866894190E0,6.377090335E-2,1.891895385E0
1.215043000E1,-1.439520174E-1,-2.033600793E0,3.927048504E-2,2.039067566E0
1.216035300E1,-1.320032322E-1,-2.152271496E0,-1.724279577E-1,2.163198754E0
1.217027600E1,-1.569071084E-1,-2.220313206E0,-3.782762611E-1,2.257765157E0
1.218019900E1,-1.455377823E-1,-2.235817098E0,-6.088501006E-1,2.321800549E0
1.219012200E1,-2.917503333E-1,-2.285259692E0,-9.251622480E-1,2.482630722E0
1.220004500E1,-1.309214973E-1,-2.599551334E0,-1.118869393E0,2.833138947E0
1.220996800E1,7.783813477E-2,-2.827997079E0,-1.086352442E0,3.030476511E0
1.221989100E1,3.963757324E-1,-3.006609052E0,-8.452009892E-1,3.148202094E0
1.222981400E1,7.761576515E-1,-2.867557002E0,-5.199771005E-1,3.015904515E0
1.223973737E1,1.155168908E0,-2.413154817E0,-2.946365190E-1,2.691568697E0
1.224966037E1,1.470109298E0,-1.748678692E0,-1.393835878E-1,2.288782712E0
1.225958337E1,1.776944863E0,-1.030830937E0,-4.780098796E-3,2.054304825E0
1.226950637E1,2.046472269E0,-5.378084039E-1,2.271701753E-1,2.128119572E0
1.227942937E1,2.077667164E0,-1.538250411E-1,5.449412030E-1,2.153444660E0
1.228935237E1,1.861305567E0,3.382148670E-1,6.594367021E-1,2.003423189E0
1.229927537E1,1.370989053E0,8.039459592E-1,3.829774225E-1,1.634812464E0
1.230919837E1,7.912013680E-1,1.067860184E0,-5.944279432E-3,1.329044887E0
1.231912137E1,2.376407844E-1,1.111885552E0,-1.610516149E-1,1.148346744E0
1.232904437E1,-2.768411028E-1,1.081364621E0,-1.594488931E-1,1.127570126E0
1.233896737E1,-6.435042089E-1,1.019957162E0,-1.551090896E-1,1.215923151E0
1.234889037E1,-7.554479831E-1,8.355876551E-1,-4.716831923E-2,1.127445447E0
1.235881237E1,-4.598531055E-1,5.388468694E-1,4.794494641E-1,8.553903296E-1
1.236873537E1,9.184864819E-2,2.180834560E-1,1.337710209E0,1.358478992E0
1.237865838E1,5.317487150E-1,9.588805094E-2,2.121993152E0,2.189704581E0
1.238858138E1,7.734117991E-1,2.542692424E-1,2.484759089E0,2.614736390E0
1.239850438E1,8.050119066E-1,5.567179339E-1,2.149851626E0,2.362168716E0
1.240842738E1,7.271994996E-1,8.764957260E-1,1.423744386E0,1.823214729E0
1.241835038E1,5.745707989E-1,1.127083854E0,8.392818528E-1,1.518171151E0
1.242827338E1,4.158171397E-1,1.234696011E0,5.201168489E-1,1.402818473E0
1.243819638E1,2.070645243E-1,1.282266618E0,3.448687792E-1,1.343881644E0
1.244811937E1,-1.044482285E-1,1.266073339E0,1.964997751E-1,1.285481736E0
1.245804237E1,-5.742603117E-1,1.168249714E0,4.997966051E-2,1.302720333E0
1.246796537E1,-1.064235349E0,9.846523317E-1,4.432481825E-2,1.450552233E0
1.247788837E1,-1.424178250E0,7.724996334E-1,1.793797123E-1,1.630097068E0
1.248781137E1,-1.703373442E0,5.849522379E-1,3.047071785E-1,1.826607968E0
1.249773437E1,-1.850815662E0,4.960169649E-1,4.135887659E-1,1.960256899E0
1.250765737E1,-1.903625375E0,5.283688051E-1,4.929559475E-1,2.036165202E0
1.251758037E1,-1.912357607E0,6.071460027E-1,5.250855204E-1,2.073994380E0
1.252750337E1,-1.831673632E0,7.058258799E-1,5.930602795E-1,2.050594783E0
1.253742637E1,-1.672289059E0,8.294863779E-1,6.921065578E-1,1.990881672E0
1.254734937E1,-1.493256671E0,8.647877730E-1,7.574719968E-1,1.884525724E0
1.255727237E1,-1.291354069E0,8.530901257E-1,8.680650643E-1,1.774512623E0
1.256719537E1,-1.116673179E0,8.160968388E-1,1.019996777E0,1.718536140E0
1.257711737E1,-1.005461476E0,7.782649881E-1,1.105114403E0,1.684614797E0
1.258704037E1,-9.361824954E-1,7.514242217E-1,9.835022575E-1,1.551886824E0
1.259696337E1,-8.072057819E-1,6.817873916E-1,6.467260247E-1,1.238817893E0
1.260688637E1,-5.780206561E-1,6.030769254E-1,2.041830164E-1,8.599420684E-1
1.261680938E1,-3.226189542E-1,4.414530873E-1,-2.104909927E-1,5.858927171E-1
1.262673238E1,-1.660433829E-1,2.427734703E-1,-4.124140602E-1,5.065517939E-1
1.263665538E1,-8.104240894E-4,8.770034105E-2,-3.605223602E-1,3.710368968E-1
1.264657838E1,3.155970329E-1,-6.121157706E-2,-3.645130849E-1,4.860227705E-1
1.265650138E1,5.136252701E-1,-1.414032161E-1,-7.318164611E-1,9.051856828E-1
1.266642438E1,7.932052088E-1,-1.575500098E-1,-1.235195071E0,1.476381851E0
1.267634738E1,9.516390252E-1,-7.752326220E-2,-1.446508766E0,1.733209249E0
1.268627038E1,9.571576273E-1,4.968993098E-2,-1.376400651E0,1.677229431E0
1.269619337E1,7.498925436E-1,5.154496014E-2,-1.266093512E0,1.472409077E0
1.270611637E1,3.304916453E-1,-4.294611789E-2,-1.209446272E0,1.254523567E0
1.271603937E1,-1.419703960E-2,-1.380265222E-1,-1.115003799E0,1.123604177E0
1.272596237E1,-2.634813845E-1,-1.513265258E-1,-9.407298750E-1,9.885822450E-1
1.273588537E1,-5.291145444E-1,-7.437862962E-2,-8.090026313E-1,9.695254711E-1
1.274580837E1,-7.405638957E-1,9.480149209E-2,-6.591659760E-1,9.959528054E-1
1.275573137E1,-7.942524451E-1,3.283375311E-1,-5.226019156E-1,1.005860449E0
1.276565437E1,-7.332279789E-1,6.398771811E-1,-4.383271658E-1,1.067331617E0
1.277557737E1,-5.772745514E-1,9.010188753E-1,-4.357187229E-1,1.155392456E0
1.278549937E1,-3.670168626E-1,1.086883077E0,-5.144526511E-1,1.257250067E0
1.279542237E1,-2.026451987E-1,1.181587797E0,-6.407279509E-1,1.359318619E0
1.280534537E1,-7.838777304E-2,1.191327797E0,-7.054116046E-1,1.386727116E0
1.281526837E1,5.212909698E-2,1.157525409E0,-7.009507638E-1,1.354220989E0
1.282519137E1,1.931089747E-1,1.074187310E0,-7.125703508E-1,1.303428539E0
1.283511437E1,3.081985509E-1,8.616088611E-1,-8.329148197E-1,1.237377579E0
1.284503737E1,4.436925709E-1,5.711852610E-1,-9.335325372E-1,1.180931284E0
1.285496037E1,6.247171050E-1,2.867264056E-1,-9.087672400E-1,1.139447844E0
1.286488338E1,8.322108150E-1,5.494540840E-2,-8.228926921E-1,1.171642531E0
1.287480638E1,9.846769631E-1,-9.936845988E-2,-7.202711338E-1,1.224031584E0
1.288472938E1,1.058077646E0,-1.198082793E-1,-6.430779469E-1,1.243958028E0
1.289465238E1,1.105644161E0,-2.580434740E-2,-6.675801194E-1,1.291811941E0
1.290457538E1,1.196853123E0,1.329067001E-1,-7.708290839E-1,1.429789868E0
1.291449838E1,1.352702470E0,3.389295430E-1,-8.039705175E-1,1.609672576E0
1.292442138E1,1.531487521E0,5.340330029E-1,-8.465364933E-1,1.829554402E0
1.293434437E1,1.614339058E0,6.226148848E-1,-1.001288903E0,1.999079627E0
1.294426737E1,1.652412034E0,6.278833723E-1,-1.295488635E0,2.191573376E0
1.295419037E1,1.672694271E0,7.948915458E-1,-1.400411072E0,2.321833298E0
1.296411337E1,1.735425539E0,1.109663537E0,-1.093976042E0,2.332346146E0
1.297403637E1,2.043828743E0,1.394231443E0,-2.603659880E-1,2.487751533E0
1.298395837E1,2.655394875E0,1.532271925E0,8.186382580E-1,3.173192051E0
1.299388137E1,3.206092662E0,1.482021538E0,1.548525723E0,3.856598230E0
1.300380437E1,3.389737333E0,1.744458756E0,1.702434964E0,4.175133572E0
1.301372737E1,3.278718004E0,2.287074083E0,1.702259547E0,4.344926602E0
1.302365037E1,2.935469488E0,2.699876983E0,1.604030417E0,4.298747541E0
1.303357337E1,2.473606110E0,2.651407951E0,1.379616619E0,3.879695004E0
1.304349637E1,2.107583274E0,1.907558212E0,1.285351317E0,3.119745758E0
1.305341937E1,1.410020971E0,7.615089145E-1,1.377715105E0,2.113327678E0
1.306334237E1,3.244853854E-1,-3.524739602E-1,1.359626743E0,1.441566349E0
1.307326537E1,-7.889303094E-1,-1.211646579E0,9.470220637E-1,1.728394994E0
1.308318837E1,-1.637227399E0,-1.886182838E0,6.305052638E-2,2.498434435E0
1.309311137E1,-2.415219322E0,-2.444518843E0,-7.539189363E-1,3.518145891E0
1.310303438E1,-3.079581134E0,-2.813863190E0,-1.045243592E0,4.300486040E0
1.311295738E1,-3.544799645E0,-2.947123281E0,-6.005347753E-1,4.648847403E0
1.312288038E1,-3.719992751E0,-2.742978564E0,3.506586921E-1,4.635217253E0
1.313280338E1,-3.496602800E0,-2.014707854E0,1.437939087E0,4.284034045E0
1.314272638E1,-2.785959692E0,-8.482099664E-1,2.274752246E0,3.695338866E0
1.315264938E1,-1.713496726E0,4.218173332E-1,2.507138137E0,3.065899955E0
1.316257238E1,-5.388682848E-1,1.306981337E0,2.244089447E0,2.652266331E0
1.317249538E1,5.046720135E-1,1.723371504E0,1.545269993E0,2.369084746E0
1.318241837E1,1.403131782E0,1.789985324E0,6.852199996E-1,2.375363699E0
1.319234037E1,2.038430593E0,1.616665227E0,9.879514039E-2,2.603567978E0
1.320226337E1,2.299151507E0,1.347435299E0,-4.597461015E-1,2.704264413E0
1.321218637E1,2.160143310E0,9.160719473E-1,-1.105936521E0,2.593935721E0
1.322210937E1,1.743901663E0,4.350161800E-1,-1.579137651E0,2.392510775E0
1.323203237E1,1.118095806E0,9.476472773E-2,-1.713472753E0,2.048196148E0
1.324195450E1,3.736873662E-1,-1.728494688E-1,-1.584036448E0,1.636670601E0
1.325187750E1,-2.562366843E-1,-4.295341229E-1,-1.477992514E0,1.560326464E0
1.326180050E1,-6.668889785E-1,-6.946307277E-1,-1.370248210E0,1.674763540E0
1.327172350E1,-9.119586504E-1,-9.006840491E-1,-1.239673453E0,1.783168698E0
1.328164650E1,-1.082410249E0,-1.007836542E0,-9.440171796E-1,1.754569713E0
1.329156950E1,-1.171790788E0,-9.710087311E-1,-6.255041403E-1,1.645359242E0
1.330149250E1,-1.256695867E0,-8.138306042E-1,-3.573584318E-1,1.539256250E0
1.331141550E1,-1.359989855E0,-6.860283771E-1,-2.412052470E-1,1.542202098E0
1.332133850E1,-1.546837631E0,-6.497478658E-1,-2.579481643E-1,1.697473476E0
1.333126150E1,-1.707574081E0,-6.606035140E-1,-3.725647008E-1,1.868424658E0
1.334118450E1,-1.718954517E0,-5.834614903E-1,-4.858802319E-1,1.879178422E0
1.335110750E1,-1.624712019E0,-4.440775370E-1,-6.747540683E-1,1.814438496E0
1.336103050E1,-1.376307095E0,-2.768392756E-1,-8.294626236E-1,1.630604014E0
1.337095350E1,-1.091318482E0,-1.101355228E-1,-9.255025560E-1,1.435151854E0
1.338087650E1,-7.665933609E-1,4.662277400E-3,-9.673013771E-1,1.234244332E0
1.339079850E1,-5.567367911E-1,9.133204669E-2,-9.779199207E-1,1.128992812E0
1.340072150E1,-4.905930877E-1,1.368453115E-1,-9.876602125E-1,1.111251957E0
1.341064450E1,-4.874782759E-1,1.476405142E-1,-1.009031201E0,1.130299410E0
1.342056750E1,-5.136153299E-1,3.628840506E-2,-1.055234145E0,1.174153591E0
1.343049050E1,-4.256439704E-1,-1.570959735E-1,-1.075121695E0,1.166935557E0
1.344041350E1,-2.565033174E-1,-3.511013263E-1,-1.082417266E0,1.166487561E0
1.345033650E1,-5.368387163E-2,-4.460951187E-1,-1.084432216E0,1.173829649E0
1.346025950E1,1.176413012E-1,-4.367735606E-1,-1.105332504E0,1.194307566E0
1.347018250E1,2.649560523E-1,-3.741634027E-1,-1.185713008E0,1.271265236E0
1.348010550E1,4.089618641E-1,-2.436034825E-1,-1.289153177E0,1.374230103E0
1.349002850E1,5.508965921E-1,-1.151047790E-1,-1.374637715E0,1.485383793E0
1.349995150E1,6.909713209E-1,-7.705782384E-2,-1.374887976E0,1.540680441E0
1.350987450E1,8.532695621E-1,-1.569038194E-1,-1.206494597E0,1.486040702E0
1.351979750E1,9.514250171E-1,-4.904442760E-1,-7.512409115E-1,1.307710999E0
1.352972050E1,1.007517942E0,-9.766703707E-1,-1.673443884E-1,1.413145980E0
1.353964350E1,9.577335781E-1,-1.404780112E0,2.865860724E-1,1.724178745E0
1.354956650E1,7.387723088E-1,-1.869937519E0,5.051240033E-1,2.073065631E0
1.355948950E1,6.112562299E-1,-2.363998298E0,6.272577202E-1,2.521026454E0
1.356941250E1,7.972316015E-1,-2.594807488E0,5.982847667E-1,2.779667028E0
1.357933550E1,1.278404825E0,-2.375389259E0,2.013646585E-1,2.705058364E0
1.358925750E1,1.856974534E0,-1.858410318E0,-5.365966415E-1,2.681413673E0
1.359918050E1,2.427866850E0,-1.263012614E0,-1.325913452E0,3.041017064E0
1.360910350E1,3.282449697E0,-9.721367320E-1,-1.685520723E0,3.815823102E0
1.361902650E1,4.042211171E0,-1.074280573E0,-8.974815291E-1,4.277735732E0
1.362894950E1,4.963028353E0,-1.307428064E0,9.665383154E-1,5.222567844E0
1.363887250E1,5.822250381E0,-1.591446624E0,2.570356479E0,6.560337970E0
1.364879550E1,5.975595950E0,-2.010008155E0,3.439013574E0,7.181552346E0
1.365871850E1,5.469032362E0,-2.405683976E0,3.751134437E0,7.054689216E0
1.366864150E1,4.162280236E0,-2.389400357E0,3.484365748E0,5.930819125E0
1.367856450E1,1.692850792E0,-1.893316441E0,2.339960979E0,3.453376368E0
1.368848750E1,-6.001184535E-1,-1.419542285E0,1.180504893E0,1.941348567E0
1.369841050E1,-2.237860408E0,-9.192656234E-1,5.300904447E-1,2.476704337E0
1.370833350E1,-3.483965798E0,-1.030367106E-2,1.329738700E-1,3.486517732E0
1.371825650E1,-4.450321096E0,1.128410002E0,-1.829038292E-1,4.594792792E0
1.372817950E1,-5.189864652E0,2.055758232E0,-4.755177963E-1,5.602406107E0
1.373810250E1,-5.635742328E0,2.779975652E0,-6.686674091E-1,6.319570580E0
1.374802550E1,-5.844929391E0,3.408242601E0,-7.324301264E-1,6.805569124E0
1.375794850E1,-5.731219758E0,3.894621893E0,-5.315899631E-1,6.949643695E0
1.376787150E1,-4.520750223E0,3.860880535E0,2.027451861E-1,5.948502896E0
1.377779450E1,-2.828473628E0,3.414407028E0,1.305278628E0,4.621925001E0
1.378771750E1,-1.485496831E0,2.665413202E0,2.431322554E0,3.901596818E0
1.379763950E1,-2.134239560E-1,1.600678501E0,3.264740235E0,3.642286404E0
1.380756250E1,8.044833183E-1,6.168283340E-1,3.829117582E0,3.961036741E0
1.381748550E1,1.547187295E0,-3.135086267E-1,4.008766267E0,4.308396821E0
1.382740850E1,1.721540741E0,-1.297834245E0,3.529849484E0,4.136171373E0
1.383733150E1,8.890755719E-1,-2.164155670E0,2.320223703E0,3.295066489E0
1.384725450E1,4.356409550E-2,-2.713987192E0,6.772134072E-1,2.797542190E0
1.385717750E1,-2.311708403E-1,-2.704845070E0,-7.906289256E-1,2.827493750E0
1.386710050E1,-1.889562821E-1,-1.912185406E0,-2.076208869E0,2.828922192E0
1.387702350E1,2.973893881E-3,-6.600755104E-1,-3.121381125E0,3.190411988E0
1.388694650E1,1.820068663E-1,6.288899705E-1,-3.455391040E0,3.516867403E0
1.389686950E1,-2.334910154E-2,1.685146501E0,-3.004611644E0,3.444989846E0
1.390679250E1,-5.267522693E-1,2.376375977E0,-2.185202723E0,3.271045960E0
1.391671550E1,-6.707171506E-1,2.505790646E0,-1.150915935E0,2.837861122E0
1.392663850E1,-5.770207822E-1,1.958491554E0,-3.761162996E-2,2.042071689E0
1.393656150E1,-6.668117952E-1,1.322580247E0,5.766336966E-1,1.589453648E0
1.394648450E1,-1.045725988E0,8.056261566E-1,6.491689914E-1,1.471052931E0
1.395640750E1,-1.307963669E0,4.620844030E-1,6.401742196E-1,1.527780739E0
1.396633050E1,-1.399365590E0,2.225918785E-1,5.644393283E-1,1.525241933E0
1.397625250E1,-1.585449720E0,1.988971700E-1,2.678279123E-1,1.620167488E0
1.398617550E1,-1.634510783E0,2.441493201E-1,1.261653721E-2,1.652692823E0
1.399609850E1,-1.686984281E0,3.275990643E-1,-2.962623373E-1,1.743848756E0
1.400602150E1,-1.650749086E0,3.286108884E-1,-4.514249289E-1,1.742625067E0
1.401594450E1,-1.572988719E0,3.095311314E-1,-5.330590761E-1,1.689454057E0
1.402586750E1,-1.369147180E0,2.440981935E-1,-6.285555097E-1,1.526181495E0
1.403579050E1,-1.121481929E0,2.034097221E-1,-7.322813147E-1,1.354744683E0
1.404571350E1,-8.579555207E-1,1.326169341E-1,-9.119566038E-1,1.259102765E0
1.405563650E1,-5.482910728E-1,3.936436940E-2,-1.038441234E0,1.174960787E0
1.406555950E1,-2.440686285E-1,-2.812452257E-2,-1.059929459E0,1.088030764E0
1.407548250E1,2.487814844E-2,-6.394361548E-2,-1.088442529E0,1.090602974E0
1.408540550E1,2.142197621E-1,-7.319478773E-2,-1.044311838E0,1.068566703E0
1.409532850E1,3.991566682E-1,6.131273389E-2,-9.330647600E-1,1.016707993E0
1.410525150E1,5.181644636E-1,4.500230590E-1,-6.498554546E-1,9.451599213E-1
1.411517450E1,3.991408807E-1,7.373026843E-1,-4.325515786E-1,9.434137793E-1
1.412509750E1,1.655919778E-1,7.433655891E-1,-5.512579501E-2,7.635783885E-1
1.413502050E1,-2.094460952E-1,6.446304557E-1,4.728166750E-1,8.264210183E-1
1.414494350E1,-3.721401930E-1,1.057603510E0,1.053963837E0,1.538783051E0
1.415486650E1,3.081658065E-2,1.853267984E0,1.601275502E0,2.449415260E0
1.416478950E1,7.197863996E-1,2.295333860E0,1.539164915E0,2.855814879E0
1.417471150E1,1.634051192E0,2.009196854E0,6.344983274E-1,2.666380209E0
1.418463450E1,2.500640126E0,1.254875044E0,-8.415792239E-1,2.921672125E0
1.419455750E1,3.366122768E0,3.932234254E-1,-2.023379275E0,3.947083840E0
1.420448050E1,3.947726598E0,-3.755108935E-1,-2.842278904E0,4.878944875E0
1.421440350E1,4.107780093E0,-8.874614480E-1,-3.451633619E0,5.438310377E0
1.422432650E1,3.769889381E0,-8.012603331E-1,-3.524447826E0,5.222625446E0
1.423424950E1,3.454780591E0,-1.750261679E-1,-2.473742934E0,4.252710570E0
1.424417254E1,3.606963733E0,6.028404055E-1,-7.293106368E-1,3.729007634E0
1.425409554E1,3.511985071E0,1.069939308E0,6.803024912E-1,3.733847980E0
1.426401854E1,3.578162688E0,1.395026664E0,1.592624838E0,4.157619690E0
1.427394154E1,3.083043855E0,1.883894238E0,1.831559027E0,4.050780836E0
1.428386454E1,1.971262457E0,2.153718098E0,1.807693031E0,3.433967300E0
1.429378754E1,1.161175168E0,1.909056854E0,1.772748317E0,2.852273205E0
1.430371054E1,4.864468271E-1,1.525864838E0,1.976441044E0,2.543857940E0
1.431363354E1,1.549979925E-2,1.223373243E0,2.390975305E0,2.685823010E0
1.432355654E1,-5.601123887E-1,9.411702434E-1,2.398429920E0,2.636663307E0
1.433347954E1,-1.429905598E0,3.971537045E-1,1.903340031E0,2.413517010E0
1.434340254E1,-2.465904157E0,-4.490127332E-1,9.842302358E-1,2.692769003E0
1.435332454E1,-3.416009458E0,-1.362319971E0,2.697341046E-1,3.687518516E0
1.436324754E1,-4.186509343E0,-2.099023827E0,-1.215361315E-1,4.684819371E0
1.437317054E1,-4.821024043E0,-2.633154405E0,-3.894143298E-1,5.507033545E0
1.438309354E1,-5.209552812E0,-3.016474182E0,-2.925394151E-1,6.026950830E0
1.439301654E1,-5.023205557E0,-3.345999283E0,2.325773880E-1,6.040066019E0
1.440293954E1,-4.366072658E0,-3.358642717E0,1.138847575E0,5.624948458E0
1.441286254E1,-3.445144964E0,-2.879215180E0,2.156673280E0,4.980978168E0
1.442278554E1,-2.102340660E0,-1.978739877E0,3.003420566E0,4.166027226E0
1.443270854E1,-5.676605594E-1,-7.656873348E-1,3.431926163E0,3.561829979E0
1.444263154E1,6.716971439E-1,3.954221246E-1,3.233749407E0,3.326360013E0
1.445255454E1,1.613274280E0,1.311175252E0,2.675905153E0,3.388554682E0
1.446247754E1,2.309202871E0,1.926836190E0,1.863735670E0,3.538167075E0
1.447240054E1,2.832827464E0,2.343168762E0,5.719623560E-1,3.720549990E0
1.448232354E1,2.856011090E0,2.455212523E0,-1.016746017E0,3.901107579E0
1.449224654E1,2.439753070E0,1.884616077E0,-2.338554139E0,3.869497159E0
1.450216954E1,1.557471378E0,6.847844551E-1,-2.941708467E0,3.398278321E0
1.451209254E1,7.365199614E-1,-6.651669735E-1,-2.762037563E0,2.934920826E0
1.452201554E1,1.564416701E-1,-1.598171507E0,-2.185303295E0,2.711858524E0
1.453193854E1,-4.207165217E-1,-2.069380198E0,-1.554564727E0,2.622214386E0
1.454186154E1,-9.545041609E-1,-2.189625849E0,-9.775427753E-1,2.580916393E0
1.455178354E1,-1.371992435E0,-2.020579628E0,-4.794424474E-1,2.488969734E0
1.456170654E1,-1.647474645E0,-1.693106316E0,-1.533461541E-1,2.367339592E0
1.457162954E1,-1.815371010E0,-1.334260352E0,5.687411249E-2,2.253676387E0
1.458155254E1,-2.070828846E0,-8.804906899E-1,2.773439634E-1,2.267270526E0
1.459147554E1,-2.338146588E0,-4.126198822E-1,3.280685592E-1,2.396834082E0
1.460139854E1,-2.313269609E0,-3.109695464E-2,1.366634631E-1,2.317511641E0
1.461132154E1,-1.986999069E0,2.425744457E-1,-8.768309176E-2,2.003670628E0
1.462124454E1,-1.504983847E0,3.588381428E-1,-3.374083167E-1,1.583535779E0
1.463116754E1,-9.397709316E-1,2.459748939E-1,-6.980113685E-1,1.196199366E0
1.464109054E1,-4.645899349E-1,-4.517726921E-2,-1.011692854E0,1.114184555E0
1.465101354E1,-1.564007396E-1,-3.292277697E-1,-1.232633990E0,1.285394363E0
1.466093654E1,3.800690174E-2,-5.471203872E-1,-1.364545421E0,1.470635729E0
1.467085954E1,1.247041529E-1,-5.993556111E-1,-1.404007110E0,1.531670408E0
1.468078254E1,1.433374751E-1,-5.268703830E-1,-1.308540789E0,1.417891755E0
1.469070554E1,1.005914050E-1,-4.486621195E-1,-1.172902928E0,1.259808560E0
1.470062854E1,-7.476483822E-2,-4.265783554E-1,-1.074686662E0,1.158667466E0
1.471055154E1,-9.832677841E-2,-4.229416797E-1,-8.205900586E-1,9.283942395E-1
1.472047454E1,-2.744975388E-2,-3.427435356E-1,-5.564771748E-1,6.541356634E-1
1.473039654E1,6.737044930E-2,-1.387374705E-1,-4.206767607E-1,4.480578089E-1
1.474032054E1,3.215033054E-2,1.489067287E-1,-5.373743212E-1,5.585499250E-1
1.475024254E1,4.746278501E-1,3.734224874E-1,-4.442281759E-1,7.497030228E-1
1.476016554E1,6.639063138E-1,4.861196753E-1,-5.528121400E-1,9.913047939E-1
1.477008854E1,6.118286723E-1,3.380919293E-1,-6.869215393E-1,9.800518752E-1
1.478001154E1,6.685823321E-1,-1.900043955E-1,-4.954053462E-1,8.535399593E-1
1.478993454E1,6.881190491E-1,-8.714833465E-1,-1.350934857E-1,1.118588977E0
1.479985754E1,5.715460342E-1,-1.486715098E0,8.675747752E-2,1.595153131E0
1.480978054E1,2.172240615E-1,-2.005985270E0,-4.654851437E-2,2.018249232E0
1.481970354E1,6.785717154E-1,-2.552688532E0,7.393687248E-2,2.642374874E0
1.482962654E1,1.040413207E0,-2.547923051E0,-2.208791560E-1,2.761006903E0
1.483954954E1,1.630833469E0,-1.927621763E0,-7.321187621E-1,2.628943010E0
1.484947254E1,2.540012353E0,-1.074825826E0,-1.248539001E0,3.027501106E0
1.485939554E1,3.275687392E0,-4.072287494E-1,-1.766892915E0,3.744045101E0
1.486931854E1,3.982963089E0,-2.034336957E-1,-1.769748110E0,4.363185603E0
1.487924154E1,4.619712594E0,-6.865096030E-1,-8.583847064E-1,4.748669729E0
1.488916454E1,4.669662434E0,-1.532350862E0,6.119093639E-1,4.952603303E0
1.489908754E1,4.700422297E0,-2.176260283E0,1.809542506E0,5.486758849E0
1.490901054E1,4.237732707E0,-2.623410898E0,2.230750778E0,5.460486450E0
1.491893254E1,3.283479391E0,-2.910799500E0,2.085260943E0,4.858220234E0
1.492885554E1,2.291533170E0,-2.951732349E0,1.850747834E0,4.170025860E0
1.493877854E1,1.291886165E0,-2.636873235E0,1.549703937E0,3.320188641E0
1.494870154E1,7.344804525E-2,-2.070351420E0,9.699718004E-1,2.287486593E0
1.495862454E1,-1.059513137E0,-1.214541828E0,3.006088650E-1,1.639526038E0
1.496854754E1,-2.070102621E0,-1.878396101E-2,-1.626730478E-1,2.076569339E0
1.497847054E1,-3.049721743E0,1.145493812E0,-5.899700260E-1,3.310743635E0
1.498839354E1,-3.879922285E0,2.039735692E0,-8.696458590E-1,4.468848011E0
1.499831654E1,-4.519521139E0,2.688921348E0,-9.321730596E-1,5.340909656E0
1.500823954E1,-4.913719368E0,3.136808711E0,-9.006606603E-1,5.898762289E0
1.501816254E1,-5.076430423E0,3.431983466E0,-7.525337309E-1,6.173731721E0
1.502808554E1,-4.538413492E0,3.377671896E0,-3.525765789E-1,5.668348499E0
1.503800854E1,-3.421841471E0,2.894415602E0,4.832454765E-1,4.507789582E0
1.504793154E1,-2.185006256E0,2.145875227E0,1.639613648E0,3.473811415E0
1.505785454E1,-8.618895274E-1,1.256507294E0,2.827657356E0,3.212057014E0
1.506777754E1,3.301297027E-1,3.657948311E-1,3.717928684E0,3.750437998E0
1.507770054E1,1.339014723E0,-3.132753959E-1,4.206925482E0,4.425982819E0
1.508762354E1,2.071883683E0,-8.096996194E-1,4.211165298E0,4.762586339E0
1.509754654E1,2.274456961E0,-1.209389261E0,3.590514931E0,4.419001508E0
1.510746854E1,1.787811913E0,-1.392587790E0,2.095280147E0,3.086384792E0
1.511739154E1,1.320018874E0,-1.426782307E0,3.769805181E-1,1.979967649E0
1.512731454E1,9.958445603E-1,-1.355985390E0,-1.282760416E0,2.115626869E0
1.513723754E1,6.095652151E-1,-1.000943917E0,-2.608141771E0,2.859346424E0
1.514716054E1,4.116463208E-1,-3.805847418E-1,-3.224367549E0,3.272742509E0
1.515708354E1,1.377007592E-1,2.625567205E-1,-3.017554455E0,3.032083841E0
1.516700654E1,-3.611877733E-1,8.634466410E-1,-2.213275790E0,2.403036918E0
1.517692954E1,-9.042549437E-1,1.202915516E0,-1.393287410E0,2.050837036E0
1.518685254E1,-1.326512792E0,1.278053407E0,-7.557596397E-1,1.991037250E0
1.519677554E1,-1.589998854E0,1.233658130E0,-9.078679383E-2,2.014510109E0
1.520669854E1,-1.886846205E0,1.151783370E0,5.429081261E-1,2.276300236E0
1.521662154E1,-2.100167250E0,1.069822656E0,9.892857385E-1,2.556151260E0
1.522654454E1,-2.221806293E0,1.028870511E0,1.058551270E0,2.667494803E0
1.523646813E1,-2.355211102E0,1.013756044E0,8.467686278E-1,2.700321789E0
1.524639113E1,-2.350898196E0,9.763701162E-1,5.435378712E-1,2.602970294E0
1.525631413E1,-2.123734453E0,9.460651669E-1,2.307919407E-1,2.336354478E0
1.526623713E1,-1.685320163E0,8.743908745E-1,-5.940127909E-2,1.899576786E0
1.527616012E1,-1.180699605E0,7.372184113E-1,-4.025334352E-1,1.448991273E0
1.528608213E1,-6.644331479E-1,5.008251303E-1,-7.545024884E-1,1.123196877E0
1.529600512E1,-2.303557384E-1,2.381924692E-1,-1.064894915E0,1.115258086E0
1.530592812E1,1.441028756E-1,9.876597740E-2,-1.311880134E0,1.323461312E0
1.531585112E1,4.522470474E-1,1.189949316E-1,-1.529796506E0,1.599676385E0
1.532577412E1,6.771906030E-1,2.160040399E-1,-1.653212517E0,1.799543410E0
1.533569712E1,7.983513433E-1,2.446632904E-1,-1.662480354E0,1.860394023E0
1.534562012E1,8.119624919E-1,1.614522222E-1,-1.571769574E0,1.776459823E0
1.535554312E1,8.105386949E-1,5.727493912E-2,-1.339568455E0,1.566747280E0
1.536546612E1,8.016801631E-1,-1.153433454E-1,-1.081458907E0,1.351128617E0
1.537538912E1,6.896194446E-1,-2.241126662E-1,-1.009907699E0,1.243267882E0
1.538531212E1,7.268732250E-1,-2.632907653E-1,-1.011236186E0,1.272896436E0
1.539523512E1,9.095747405E-1,-1.794747296E-1,-9.968812716E-1,1.361363161E0
1.540515812E1,1.168358472E0,9.134644546E-2,-8.902727893E-1,1.471730727E0
1.541508112E1,1.200524590E0,4.963721833E-1,-7.576985765E-1,1.503912154E0
1.542500412E1,9.039877260E-1,9.820688125E-1,-5.123137397E-1,1.429726662E0
1.543492712E1,6.764749038E-1,1.218795458E0,-1.238820344E-1,1.399438252E0
1.544485013E1,7.499843448E-1,1.129671831E0,1.400981176E-1,1.363181003E0
1.545477313E1,9.425512826E-1,9.217752483E-1,4.140822709E-2,1.319009920E0
1.546469613E1,1.219579496E0,8.108483049E-1,-2.210884863E-1,1.481124316E0
1.547461813E1,1.689365852E0,7.901371747E-1,-3.584881139E-1,1.899154408E0
1.548454113E1,2.310494521E0,6.974403879E-1,-2.265410149E-1,2.424072783E0
1.549446413E1,3.091735157E0,5.579176363E-1,2.784198511E-1,3.153984144E0
1.550438713E1,4.083259794E0,4.212500802E-1,1.177090119E0,4.270363372E0
1.551431013E1,4.694611918E0,4.364136645E-1,1.952742571E0,5.103238335E0
1.552423313E1,4.221148834E0,1.239080545E0,2.250978636E0,4.941692311E0
1.553415612E1,3.104807192E0,2.435018872E0,2.450157313E0,4.644611444E0
1.554407912E1,2.165674776E0,3.343898086E0,2.731175667E0,4.830230033E0
1.555400212E1,1.320997698E0,3.730021603E0,2.977689016E0,4.952244739E0
1.556392512E1,-1.060977280E-1,3.486288897E0,2.598010885E0,4.349152510E0
1.557384812E1,-1.818580547E0,2.562030921E0,1.649261846E0,3.548422506E0
1.558377112E1,-3.299703076E0,1.012931586E0,7.464257294E-1,3.531461759E0
1.559369412E1,-3.867385855E0,-5.705938151E-1,9.032895684E-2,3.910295382E0
1.560361712E1,-3.984100957E0,-1.767065700E0,-2.830660486E-1,4.367574614E0
1.561354012E1,-4.083642202E0,-2.634241110E0,-2.484768444E-1,4.865912104E0
1.562346312E1,-4.083241083E0,-3.065515365E0,3.876446700E-1,5.120596702E0
1.563338612E1,-3.797594658E0,-2.848283409E0,1.599101214E0,5.009148457E0
1.564330812E1,-3.217520460E0,-2.162696790E0,2.653617906E0,4.698019083E0
1.565323112E1,-2.098861567E0,-1.341607963E0,3.522412995E0,4.314223582E0
1.566315412E1,-6.329833138E-1,-3.086546338E-1,4.038336806E0,4.099280390E0
1.567307712E1,7.121750790E-1,8.367658690E-1,3.647873778E0,3.809770802E0
1.568300012E1,1.742089026E0,1.954532696E0,2.353899572E0,3.520783355E0
1.569292312E1,2.070858082E0,2.561760779E0,6.510886323E-1,3.357824875E0
1.570284613E1,2.046941800E0,2.284775835E0,-7.813213277E-1,3.165538559E0
1.571276913E1,1.683556058E0,1.553440600E0,-1.615436581E0,2.803065116E0
1.572269213E1,1.113589357E0,7.693985626E-1,-1.833563452E0,2.279037152E0
1.573261513E1,5.785492444E-1,2.051030027E-1,-1.620235975E0,1.732613946E0
1.574253813E1,-7.616115332E-2,-9.174427539E-2,-1.269383740E0,1.274971613E0
1.575246113E1,-7.243185765E-1,-1.605059966E-1,-1.081601287E0,1.311587175E0
1.576238413E1,-1.245487924E0,-1.552744927E-1,-9.484759739E-1,1.573199609E0
1.577230713E1,-1.533950368E0,-1.626864233E-1,-7.598778337E-1,1.719559515E0
1.578223012E1,-1.643535960E0,-1.898552185E-1,-3.354655793E-1,1.688132877E0
1.579215312E1,-1.630987251E0,-2.698384043E-1,1.789826864E-1,1.662818986E0
1.580207612E1,-1.555893214E0,-3.135907801E-1,5.445900777E-1,1.678011092E0
1.581199912E1,-1.451273078E0,-3.223461816E-1,7.004929268E-1,1.643408333E0
1.582192212E1,-1.323730102E0,-2.982810885E-1,7.252781045E-1,1.538590692E0
1.583184412E1,-1.208468032E0,-2.643312042E-1,6.094339451E-1,1.379012583E0
1.584176712E1,-1.141364216E0,-2.332694060E-1,4.041232932E-1,1.233062255E0
1.585169012E1,-1.085941967E0,-1.493127447E-1,1.724121702E-1,1.109635169E0
1.586161312E1,-1.013725930E0,-2.275999457E-2,1.389356911E-2,1.014076580E0
1.587153612E1,-9.363988423E-1,4.930898488E-2,-1.165092802E-1,9.449066516E-1
1.588145912E1,-7.479845971E-1,1.054826740E-1,-2.697507691E-1,8.021053730E-1
1.589138212E1,-5.313873571E-1,2.721212304E-1,-5.230808026E-1,7.937480793E-1
1.590130512E1,-4.723228776E-1,3.672203457E-1,-7.817943674E-1,9.844501592E-1
1.591122812E1,-4.243172371E-1,3.190614351E-1,-9.194062489E-1,1.061674700E0
1.592115112E1,-3.526069844E-1,1.214691809E-1,-9.431231403E-1,1.014183270E0
1.593107412E1,-2.327729774E-1,-1.854611090E-1,-7.724908626E-1,8.278412980E-1
1.594099712E1,-1.261337972E-1,-4.326048613E-1,-5.826884884E-1,7.366020468E-1
1.595092013E1,-1.572725594E-2,-5.279999920E-1,-4.081105095E-1,6.675219293E-1
1.596084313E1,5.550527930E-2,-5.446829753E-1,-2.820305067E-1,6.158746515E-1
1.597076613E1,5.066086113E-2,-6.307648802E-1,-1.294784045E-1,6.459067380E-1
1.598068913E1,-1.794218123E-2,-7.938659441E-1,1.205333340E-1,8.031645807E-1
1.599061213E1,-1.679226780E-1,-9.126161698E-1,3.482630879E-1,9.911374665E-1
1.600053413E1,-4.669837850E-1,-1.101613382E0,4.640174925E-1,1.283330874E0
1.601045713E1,-7.141140157E-1,-1.499126691E0,6.809977251E-1,1.794741643E0
1.602038013E1,-8.158175611E-1,-1.835811414E0,9.876970500E-1,2.238594940E0
1.603030313E1,-7.614068806E-1,-1.660880848E0,9.908410978E-1,2.078468598E0
1.604022612E1,-4.657646406E-1,-6.858743030E-1,5.036434883E-1,9.700603194E-1
1.605014912E1,-1.359699833E-1,5.060817772E-1,-3.509481293E-1,6.306910425E-1
1.606007212E1,3.507370448E-1,1.492894436E0,-1.030577021E0,1.847657779E0
1.606999512E1,1.297977794E0,2.149335902E0,-1.246590124E0,2.803279885E0
1.607991812E1,2.480657267E0,2.580934092E0,-9.204540700E-1,3.696230101E0
1.608984112E1,3.422429116E0,2.689156113E0,-2.422980917E-1,4.359276318E0
1.609976412E1,4.101965037E0,2.088933287E0,8.445273900E-1,4.680062602E0
1.610968712E1,4.495793722E0,6.986034722E-1,2.262253237E0,5.081141379E0
1.611961012E1,4.800569898E0,-6.188774908E-1,3.513063297E0,5.980810516E0
1.612953312E1,4.717506691E0,-1.252382376E0,4.073723570E0,6.357558865E0
1.613945612E1,2.777295288E0,-1.286978305E0,3.131140128E0,4.378780740E0
1.614937912E1,3.768319988E-1,-1.025739327E0,1.696193061E0,2.017725061E0
1.615930212E1,-1.107146895E0,-6.642156315E-1,1.150655442E0,1.729440545E0
1.616922512E1,-2.146337450E0,-1.823295961E-1,8.921436059E-1,2.331507826E0
1.617914812E1,-2.781490080E0,3.268435675E-1,6.423096228E-1,2.873338726E0
1.618907012E1,-3.162257255E0,7.908236378E-1,5.336806351E-1,3.303042233E0
1.619899312E1,-3.486776555E0,1.167885140E0,4.844733918E-1,3.708946064E0
1.620891613E1,-3.830033841E0,1.378021499E0,5.029880154E-1,4.101353364E0
1.621883913E1,-4.126201161E0,1.353457931E0,5.173633951E-1,4.373219555E0
1.622876213E1,-4.347634633E0,1.187601074E0,5.026611561E-1,4.534863995E0
