"Time (s)","Linear Acceleration x (m/s^2)","Linear Acceleration y (m/s^2)","Linear Acceleration z (m/s^2)","Absolute acceleration (m/s^2)"
3.922166667E-3,-1.406650051E0,3.562646517E0,6.693959722E-1,3.888342261E0
1.394116667E-2,-1.754290996E0,2.800026923E0,5.166805573E0,6.132990094E0
2.396116667E-2,-7.545159370E-1,4.774871385E-1,4.405963533E0,4.495531439E0
3.398016667E-2,9.633287787E-3,-1.558156672E0,3.954234841E0,4.250166843E0
4.399916667E-2,1.158201858E0,-1.845175438E0,1.686965862E0,2.755350751E0
5.401816667E-2,2.422647040E0,-2.230299373E0,-2.093271044E-1,3.299586613E0
6.403716667E-2,2.298767930E0,-2.159864398E0,-1.613305271E0,3.542894595E0
7.405716666E-2,1.203811310E0,-1.320760885E0,-1.842302116E0,2.566641400E0
8.407616667E-2,3.617034978E-1,-1.628056042E0,-1.387540474E0,2.169484838E0
9.409516667E-2,-3.662485385E-1,-1.193948227E0,9.768642059E-1,1.585532730E0
1.041141667E-1,-8.701738626E-1,-3.216144025E-1,1.131450262E0,1.463153468E0
1.141331667E-1,-6.970857543E-1,8.861624891E-1,3.958729596E0,4.116157494E0
1.241521667E-1,-5.595750296E-1,2.873432284E0,2.328674976E0,3.740650271E0
1.341721667E-1,-4.863351452E-1,3.192884386E0,-3.607615113E-1,3.249797139E0
1.441911667E-1,-3.875856131E-1,2.226036168E0,-1.141666810E0,2.531573174E0
1.542101667E-1,-3.600697857E-1,1.389823519E0,-1.150213392E0,1.839633255E0
1.642291667E-1,-3.463165498E-1,6.945726210E-1,-8.709918880E-1,1.166616110E0
1.742481667E-1,1.511797607E-2,-4.917368031E-1,-1.042662047E0,1.152899727E0
1.842681667E-1,2.168206036E-2,2.489569008E-2,-1.257642531E-1,1.300252071E-1
1.942871667E-1,2.571125972E-1,2.551040787E-1,-1.133687407E-2,3.623720510E-1
2.043061667E-1,2.437002540E-1,4.021381634E-1,4.594859004E-2,4.724576057E-1
2.143251667E-1,-1.322435528E-1,5.602117914E-1,2.932574531E-1,6.460073856E-1
2.243441667E-1,-6.602781165E-1,6.950099927E-1,4.629682097E-1,1.064587077E0
2.343631667E-1,-1.192442569E0,7.920597392E-1,4.796845222E-1,1.509759965E0
2.443831667E-1,-1.425423707E0,9.088298053E-1,3.457610643E-1,1.725501397E0
2.544021667E-1,-1.440329429E0,9.651396614E-1,1.377697563E-1,1.739259594E0
2.644211667E-1,-1.346816078E0,9.594257623E-1,-1.931364566E-2,1.653718343E0
2.744401667E-1,-1.115877957E0,9.154862756E-1,-1.213823497E-1,1.448458633E0
2.844591667E-1,-8.388444811E-1,8.584496105E-1,-6.973857164E-2,1.202272542E0
2.944791667E-1,-4.905989349E-1,7.583335841E-1,1.932946238E-1,9.236449270E-1
3.044981667E-1,7.746683657E-2,6.338457781E-1,3.187001503E-1,7.136745526E-1
3.145171667E-1,4.933699304E-1,3.698650414E-1,3.897599003E-1,7.294702303E-1
3.245361667E-1,6.378435194E-1,4.303550720E-2,6.997897992E-1,9.478407953E-1
3.345551667E-1,5.714945787E-1,-1.828810251E-1,1.003197434E0,1.168955352E0
3.445741667E-1,2.623166192E-1,-2.904610223E-1,1.223846794E0,1.284904117E0
3.545941667E-1,3.047101021E-2,-2.806663513E-1,1.154301181E0,1.188323735E0
3.646131667E-1,-1.921435994E-1,-1.679209238E-1,8.378226802E-1,8.758215816E-1
3.746321667E-1,-4.778052270E-1,-2.274157584E-2,4.673501131E-1,6.687534243E-1
3.846511667E-1,-8.054744214E-1,2.054851913E-1,3.081567433E-1,8.865516262E-1
3.946701667E-1,-1.080322208E0,4.665674633E-1,2.623859087E-1,1.205664811E0
4.046891667E-1,-1.581391752E0,6.540408915E-1,3.032564843E-1,1.737968313E0
4.147091667E-1,-2.270218899E0,7.317451251E-1,1.989804563E-1,2.393520002E0
4.247281667E-1,-2.631571564E0,9.274841774E-1,-1.689924261E-1,2.795345101E0
4.347474583E-1,-2.207946053E0,9.436686856E-1,-1.667830557E-1,2.406938501E0
4.447664583E-1,-1.362961995E0,8.379481030E-1,3.650703245E-1,1.641066350E0
4.547854583E-1,-5.244280010E-1,7.093795252E-1,1.000155128E0,1.333624504E0
4.648054583E-1,1.547769678E-1,5.410861337E-1,1.310333546E0,1.426079982E0
4.748244583E-1,4.902685672E-1,4.041151071E-1,1.136834378E0,1.302330485E0
4.848434583E-1,4.775040954E-1,2.681638348E-1,6.515540707E-1,8.511431786E-1
4.948624583E-1,2.145729339E-1,1.628858864E-1,1.036956918E-1,2.886626967E-1
5.048814583E-1,-1.396262473E-1,1.367476630E-1,-2.054495233E-1,2.835576113E-1
5.149004583E-1,-5.135217744E-1,1.569340056E-1,-2.244424492E-1,5.819856596E-1
5.249204583E-1,-8.318126196E-1,2.042724788E-1,-3.927253157E-2,8.574274380E-1
5.349394583E-1,-1.005783073E0,2.560805637E-1,1.820448732E-1,1.053715892E0
5.449584583E-1,-1.111092596E0,2.768194681E-1,4.093530428E-1,1.216028655E0
5.549774583E-1,-1.203482696E0,1.495782083E-1,6.201282102E-1,1.362095165E0
5.649964583E-1,-1.278893067E0,-1.621713567E-1,7.749548793E-1,1.504134998E0
5.750164583E-1,-1.297290747E0,-4.741840464E-1,7.804205641E-1,1.586464638E0
5.850354583E-1,-1.193489805E0,-6.560885864E-1,6.584467685E-1,1.512753217E0
5.950544583E-1,-9.933325964E-1,-6.795499545E-1,4.738837919E-1,1.293469612E0
6.050734583E-1,-7.454036361E-1,-4.923080760E-1,2.925098866E-1,9.399765190E-1
6.150924583E-1,-8.159198874E-1,1.657393277E-1,1.252154920E-1,8.419463800E-1
6.251114583E-1,-5.322591770E-1,1.254477434E0,4.228601110E-1,1.426823092E0
6.351314583E-1,2.410883027E-1,1.796034853E0,8.271518040E-1,1.991995198E0
6.451504583E-1,6.880377728E-1,1.659907579E0,1.048461900E0,2.080375328E0
6.551694583E-1,1.102045784E0,1.270518685E0,1.268077472E0,2.106357784E0
6.651884583E-1,1.213089672E0,7.300891936E-1,1.527727761E0,2.082923161E0
6.752074583E-1,1.208441135E0,1.972107965E-1,1.754064124E0,2.139150071E0
6.852264583E-1,1.041073358E0,-1.643014973E-1,1.409529513E0,1.760000615E0
6.952464583E-1,5.792649436E-1,-3.173014963E-1,1.062547550E0,1.251093686E0
7.052654583E-1,9.677317321E-2,-4.910637885E-1,6.946351862E-1,8.561698040E-1
7.152844583E-1,-2.505268782E-1,-5.119751859E-1,3.295084360E-1,6.583753618E-1
7.253034583E-1,-4.391931385E-1,-6.323062062E-1,1.340868875E-1,7.814608402E-1
7.353224583E-1,-5.000720090E-1,-6.931523323E-1,8.360787481E-2,8.587912707E-1
7.453424583E-1,-5.830399060E-1,-8.415312767E-1,1.603443941E-1,1.036253225E0
7.553614583E-1,-6.279465222E-1,-9.980419439E-1,3.129160845E-1,1.219967636E0
7.653804583E-1,-5.736545402E-1,-1.122503437E0,4.656599754E-1,1.343849959E0
7.753994583E-1,-5.492897773E-1,-1.264013658E0,6.119812846E-1,1.507969124E0
7.854184583E-1,-5.430244857E-1,-1.469173159E0,5.027330768E-1,1.645018513E0
7.954374583E-1,-5.414749736E-1,-1.675809082E0,2.302911267E-1,1.776109577E0
8.054574583E-1,-5.953330922E-1,-1.849414669E0,-3.056924343E-3,1.942875563E0
8.154764583E-1,-7.311574799E-1,-1.931003208E0,-1.948268867E-1,2.073962913E0
8.254954583E-1,-7.940489620E-1,-1.860293999E0,-2.874537992E-1,2.042997113E0
8.355144583E-1,-7.602017695E-1,-1.665489916E0,-2.513884655E-1,1.847960917E0
8.455334583E-1,-6.014206284E-1,-1.332388659E0,-1.142613181E-1,1.466295318E0
8.555524583E-1,-3.170278466E-1,-9.196606028E-1,-8.299099356E-2,9.763041457E-1
8.655724583E-1,2.852622628E-2,-4.876963770E-1,-1.284519258E-1,5.051350305E-1
8.755914583E-1,3.327849233E-1,-1.123513252E-1,-1.719072631E-1,3.910508056E-1
8.856104583E-1,5.700093859E-1,1.315465647E-1,-1.801375115E-1,6.120986210E-1
8.956294583E-1,7.029394019E-1,2.206885368E-1,-1.214244497E-1,7.467068568E-1
9.056484583E-1,8.221079957E-1,2.212551320E-1,4.905682370E-2,8.527731011E-1
9.156684583E-1,8.882774270E-1,1.100539541E-1,2.335518265E-1,9.250378996E-1
9.256874583E-1,8.700230044E-1,-1.234891015E-1,3.146328270E-1,9.333720599E-1
9.357064583E-1,7.162657911E-1,-4.960187191E-1,2.661025451E-1,9.109784946E-1
9.457254583E-1,3.165021819E-1,-9.827386111E-1,2.134828667E-1,1.054288264E0
9.557444583E-1,-3.214389861E-1,-1.579392005E0,1.066640308E-1,1.615295435E0
9.657634583E-1,-1.099124515E0,-2.075055213E0,-1.234662974E-1,2.351419308E0
9.757834583E-1,-1.837931322E0,-2.309044996E0,-4.215898034E-1,2.981177335E0
9.858024583E-1,-2.445735941E0,-2.368397158E0,-8.529011875E-1,3.509753528E0
9.958214583E-1,-2.978786246E0,-2.497447547E0,-1.307797316E0,4.101310226E0
1.005840458E0,-3.405190355E0,-2.762804133E0,-1.626807661E0,4.677062240E0
1.015859458E0,-3.755566626E0,-3.107046676E0,-1.743269140E0,5.176582562E0
1.025879458E0,-3.994761600E0,-3.434957360E0,-1.704262218E0,5.537288327E0
1.035898458E0,-3.978543763E0,-3.676157929E0,-1.596300106E0,5.647222470E0
1.045917458E0,-3.632855204E0,-3.827259922E0,-1.532915119E0,5.495032685E0
1.055936458E0,-3.148097053E0,-3.879702430E0,-1.358219465E0,5.177583038E0
1.065955458E0,-2.725090177E0,-3.840560583E0,-1.177237177E0,4.854061128E0
1.075974458E0,-2.286740792E0,-3.590575742E0,-1.342334919E0,4.463550228E0
1.085994458E0,-1.664012325E0,-2.965157556E0,-2.124922607E0,4.009537683E0
1.096013458E0,-8.813964236E-1,-1.747352105E0,-3.170952065E0,3.726263012E0
1.106032458E0,-2.878701210E-2,-7.533552647E-3,-4.347920562E0,4.348022385E0
1.116051458E0,9.681059539E-1,2.175807416E0,-5.346555998E0,5.852950375E0
1.126070458E0,2.389824280E0,5.690198032E0,-5.189251864E0,8.063370799E0
1.136089458E0,4.206547751E0,1.028519152E1,-3.310159067E0,1.159471266E1
1.146109458E0,5.589466878E0,1.333711766E1,-1.406202155E0,1.452922063E1
1.156128458E0,6.081932244E0,1.304931771E1,-8.325742194E-1,1.442108777E1
1.166147458E0,6.393571297E0,1.027996528E1,-1.601311754E0,1.221145525E1
1.176166458E0,7.723083710E0,7.676515315E0,-2.591750271E0,1.119339443E1
1.186185458E0,1.065522672E1,5.880418482E0,-1.627943190E0,1.227857390E1
1.196205458E0,1.561961104E1,3.608282573E0,3.589977572E0,1.642802152E1
1.206224458E0,2.476329041E1,-2.792835141E0,2.912708850E1,3.833285490E1
1.216243458E0,2.518110905E1,-8.492453329E0,1.632012268E1,3.118583686E1
1.226262458E0,1.442711585E1,-4.513125454E0,-1.010856234E1,1.818496647E1
1.236281458E0,8.811891398E0,1.589258304E0,6.873928249E-1,8.980405384E0
1.246300458E0,9.248742726E0,5.871965747E0,6.752357619E0,1.286909310E1
1.256320458E0,7.130049743E0,6.585404994E0,6.392586626E0,1.162197625E1
1.266339458E0,4.995193886E0,5.286740152E0,2.768885530E0,7.782564518E0
1.276358458E0,4.037425810E0,4.321426536E0,-3.640760055E-1,5.925207659E0
1.286377458E0,3.102947193E0,3.174416540E0,-1.854597934E0,4.810897541E0
1.296396458E0,1.868904608E0,1.677648909E0,-2.274918014E0,3.388592963E0
1.306416458E0,7.600474030E-1,2.837323388E-1,-1.962708858E0,2.123770740E0
1.316435458E0,-8.720069647E-2,-7.786924195E-1,-1.228519889E0,1.457129700E0
1.326454458E0,-7.316351974E-1,-1.507567439E0,-6.421505785E-1,1.794549250E0
1.336473458E0,-1.277061719E0,-2.049304660E0,-2.394616073E-1,2.426495021E0
1.346492458E0,-1.839698351E0,-2.561537123E0,-2.658802047E-1,3.164909910E0
1.356511458E0,-2.506633523E0,-3.121965262E0,-7.203834003E-1,4.068025437E0
1.366531458E0,-3.260943053E0,-3.887399120E0,-1.420450650E0,5.269089253E0
1.376550458E0,-4.114547076E0,-4.812356130E0,-2.262352932E0,6.723578657E0
1.386569458E0,-5.130536463E0,-5.796798036E0,-2.769253027E0,8.221559110E0
1.396588458E0,-6.182327768E0,-6.845569253E0,-3.385504534E0,9.825713001E0
1.406607458E0,-7.417887120E0,-8.020353815E0,-4.055910612E0,1.165339159E1
1.416626458E0,-8.530842639E0,-9.227572882E0,-4.633013256E0,1.339358762E1
1.426646458E0,-9.412743677E0,-9.859357517E0,-5.321169727E0,1.463289177E1
1.436664958E0,-1.016185971E1,-1.049527730E1,-5.757150990E0,1.570219812E1
1.446683958E0,-1.090074429E1,-1.085228373E1,-6.138299403E0,1.656131057E1
1.456702958E0,-1.143197435E1,-1.056205718E1,-6.512568567E0,1.687188901E1
1.466721958E0,-1.178143203E1,-9.738893765E0,-6.873019592E0,1.675967156E1
1.476741958E0,-1.169181409E1,-8.643168236E0,-7.377064784E0,1.630410865E1
1.486760958E0,-1.140742423E1,-7.615236495E0,-7.730802619E0,1.574441055E1
1.496779958E0,-1.101920654E1,-6.723260704E0,-7.614978633E0,1.498709601E1
1.506798958E0,-1.043057669E1,-5.915502945E0,-7.031157539E0,1.390062162E1
1.516817958E0,-9.757189702E0,-5.207172410E0,-6.044940419E0,1.260391606E1
1.526836958E0,-9.024717184E0,-4.661452358E0,-4.841974324E0,1.125252744E1
1.536856958E0,-8.094119949E0,-4.353029859E0,-3.746498472E0,9.924711457E0
1.546875958E0,-7.110577345E0,-4.165826572E0,-2.930910706E0,8.746694163E0
1.556894958E0,-6.245589378E0,-4.032886031E0,-2.639297198E0,7.889071309E0
1.566913958E0,-5.275484846E0,-4.071699849E0,-2.885339846E0,7.261863814E0
1.576932958E0,-4.190108889E0,-4.003557567E0,-3.052270544E0,6.549949708E0
1.586952958E0,-3.218560680E0,-3.595288598E0,-3.066488049E0,5.717392929E0
1.596971958E0,-2.156273623E0,-2.566087427E0,-3.461619494E0,4.818415729E0
1.606990958E0,-1.121246871E0,-8.206672418E-1,-3.215663384E0,3.503024446E0
1.617009958E0,-8.051206648E-2,1.917363408E0,-1.360366416E-1,1.923868655E0
1.627028958E0,2.341899916E0,5.649016092E0,6.061875125E0,8.610586975E0
1.637047958E0,9.882346430E0,1.106519606E1,1.297327467E1,1.970799813E1
1.647067958E0,2.907451502E1,1.175220881E1,2.832511715E1,4.225818378E1
1.657086958E0,3.202504108E1,3.923575258E-1,1.222343475E1,3.428074617E1
1.667105958E0,1.518179258E1,1.749679881E0,-1.242604896E1,1.969657073E1
1.677124958E0,7.862494780E0,4.643489127E0,-5.492684349E-1,9.147814561E0
1.687143958E0,1.144759110E1,5.781523354E0,7.145746593E0,1.468111197E1
1.697163958E0,1.588214868E1,7.153398260E0,9.150159840E0,1.967585268E1
1.707182958E0,1.744931007E1,6.549983146E0,7.323471544E0,2.002533237E1
1.717201958E0,1.410983423E1,5.398826598E0,7.949135313E0,1.707113068E1
1.727220958E0,1.162704331E1,5.333887421E0,9.456215386E0,1.590781257E1
1.737239958E0,1.153513678E1,6.084372872E0,6.052227804E0,1.437735842E1
1.747258958E0,1.154029636E1,6.129645524E0,4.208340215E0,1.372811428E1
1.757278958E0,1.165178405E1,4.676092032E0,4.850212174E0,1.345936352E1
1.767297958E0,1.224780010E1,1.826834184E0,5.782152514E0,1.366671936E1
1.777316958E0,9.899123261E0,1.223181674E0,5.875337251E0,1.157619983E1
1.787335958E0,6.032284121E0,2.612020229E0,1.755223042E0,6.803815791E0
1.797354958E0,2.507427574E0,3.757001825E0,-8.768239009E-1,4.601203746E0
1.807373958E0,-9.703045070E-2,3.860064556E0,-2.078125586E0,4.384987940E0
1.817393958E0,-2.109833282E0,3.109199036E0,-2.057795402E0,4.284044472E0
1.827412958E0,-3.818982604E0,1.899020400E0,-1.578150056E0,4.547687787E0
1.837431958E0,-4.917592564E0,5.076818678E-1,-1.654740395E0,5.213312121E0
1.847450958E0,-4.758999703E0,-1.250191717E0,-1.562500568E0,5.162602592E0
1.857469958E0,-4.862854439E0,-2.776972522E0,-1.426299620E0,5.778690188E0
1.867489958E0,-5.594665638E0,-3.966344425E0,-1.498089395E0,7.019718194E0
1.877508958E0,-6.095060998E0,-5.202974110E0,-2.024832893E0,8.265631034E0
1.887527958E0,-7.117344913E0,-6.296367184E0,-3.042368869E0,9.977817730E0
1.897546958E0,-7.911099760E0,-7.641206903E0,-4.512144291E0,1.188835516E1
1.907565958E0,-8.241844590E0,-8.895559791E0,-6.098804970E0,1.357403434E1
1.917584958E0,-8.325880188E0,-9.679128789E0,-6.964242003E0,1.454326242E1
1.927604958E0,-8.265556803E0,-9.875812751E0,-6.900880405E0,1.461072405E1
1.937623958E0,-8.496363947E0,-9.604599593E0,-6.068523409E0,1.418673712E1
1.947642958E0,-9.141076775E0,-8.903048320E0,-5.259203274E0,1.380154966E1
1.957661958E0,-9.880120980E0,-8.187955481E0,-5.044430366E0,1.378788175E1
1.967680958E0,-1.037667004E1,-7.537633418E0,-5.760617219E0,1.405972651E1
1.977700958E0,-1.029429096E1,-6.828293070E0,-7.407189054E0,1.440362671E1
1.987719958E0,-9.584415590E0,-6.139312726E0,-9.062009556E0,1.454895873E1
1.997738958E0,-8.603253973E0,-5.524876195E0,-9.934912899E0,1.425632246E1
2.007757958E0,-7.208566155E0,-5.291000433E0,-9.896530606E0,1.333789450E1
2.017776958E0,-3.944515307E0,-6.352625000E0,-9.360040968E0,1.198020919E1
2.027796958E0,-6.103697920E-1,-7.622296423E0,-8.655360265E0,1.154933831E1
2.037815958E0,-1.973755125E0,-6.604444697E0,-6.290171474E0,9.331701679E0
2.047834958E0,-4.031444108E0,-5.055332499E0,-2.779417242E0,7.038045786E0
2.057853958E0,-4.144590070E0,-4.822671204E0,-7.885139877E-1,6.407615679E0
2.067872958E0,-3.301918586E0,-4.651241950E0,4.642396867E-1,5.722956973E0
2.077892958E0,-3.230380241E0,-3.221559132E0,1.435837598E0,4.782826502E0
2.087911958E0,-3.361787642E0,-1.125303084E0,1.588606632E0,3.884790112E0
2.097930958E0,-2.627669132E0,1.300651141E0,1.385203634E0,3.242703744E0
2.107949958E0,-8.856689841E-1,4.224651316E0,1.901300522E0,4.716675944E0
2.117968958E0,1.358024606E0,7.384632250E0,3.582833444E0,8.319478336E0
2.127987958E0,3.769122811E0,9.488732337E0,5.982571678E0,1.183357478E1
2.138007958E0,6.099904246E0,1.003504179E1,8.267901537E0,1.436207128E1
2.148026958E0,8.871796122E0,9.344221911E0,8.805260655E0,1.560627645E1
2.158045958E0,1.177997607E1,8.820014350E0,8.162093831E0,1.682796081E1
2.168064958E0,1.343980179E1,9.150589610E0,8.363141570E0,1.828397384E1
2.178083958E0,1.388611625E1,9.405465063E0,9.791739146E0,1.942074028E1
2.188103958E0,1.376877316E1,9.311693265E0,1.118964352E1,2.003733684E1
2.198122958E0,1.338606822E1,9.192371475E0,1.169469326E1,2.001130596E1
2.208141958E0,1.290200530E1,9.225493028E0,1.099837291E1,1.930118310E1
2.218160958E0,1.239710173E1,9.134006322E0,9.955996789E0,1.833685019E1
2.228179958E0,1.126207181E1,8.587758851E0,8.825962138E0,1.668776411E1
2.238198958E0,9.636554042E0,7.557885250E0,7.545078678E0,1.438447133E1
2.248218958E0,8.119874010E0,6.368292614E0,6.283264743E0,1.208167706E1
2.258237958E0,6.658148450E0,5.268119693E0,5.102653431E0,9.905609417E0
2.268256958E0,5.001868483E0,4.427722777E0,4.138038849E0,7.857912116E0
2.278275958E0,3.355022998E0,3.712364473E0,3.092309353E0,5.882194016E0
2.288294958E0,1.844787768E0,3.028127391E0,1.880200260E0,4.013471118E0
2.298314958E0,3.778716338E-1,2.074161758E0,9.282443154E-1,2.303599679E0
2.308333958E0,-1.142097457E0,7.352867836E-1,1.798077285E-2,1.358439017E0
2.318352958E0,-2.486952379E0,-8.989404094E-1,-9.302388006E-1,2.803278478E0
2.328371958E0,-3.603937215E0,-2.601568331E0,-1.906120967E0,4.836302138E0
2.338390958E0,-4.528686064E0,-4.312184134E0,-2.845264492E0,6.870186279E0
2.348410958E0,-5.327197037E0,-5.719160460E0,-3.732340901E0,8.661304361E0
2.358429958E0,-6.048577972E0,-6.533575859E0,-4.468586043E0,9.961986259E0
2.368448958E0,-6.922531475E0,-6.942226067E0,-5.129356495E0,1.106463930E1
2.378467958E0,-7.914760702E0,-7.438984458E0,-5.665690012E0,1.225079467E1
2.388486958E0,-8.853401366E0,-8.149455074E0,-6.390208563E0,1.362465043E1
2.398505958E0,-9.604276242E0,-8.852918386E0,-7.511200495E0,1.506766136E1
2.408525958E0,-9.943594844E0,-9.265351158E0,-8.733708277E0,1.615547804E1
2.418544958E0,-1.027061558E1,-9.072740366E0,-9.615287719E0,1.674078613E1
2.428563958E0,-1.006408842E1,-8.594788958E0,-1.038037367E1,1.681988200E1
2.438583333E0,-8.986892130E0,-8.251919927E0,-1.034298306E1,1.599486515E1
2.448602333E0,-7.907121899E0,-7.817191138E0,-9.029413083E0,1.432345470E1
2.458622333E0,-7.247120941E0,-6.941263615E0,-7.214435005E0,1.235920608E1
2.468641333E0,-6.765021518E0,-6.092374787E0,-5.537452971E0,1.065579336E1
2.478660333E0,-6.327168562E0,-5.347623115E0,-4.344313415E0,9.354314194E0
2.488679333E0,-5.904202616E0,-4.739662961E0,-3.739209040E0,8.444270114E0
2.498698333E0,-5.545990491E0,-4.194841041E0,-3.556646104E0,7.810533490E0
2.508718333E0,-5.289233989E0,-3.827171044E0,-3.540946037E0,7.427081071E0
2.518737333E0,-5.085143943E0,-3.688945790E0,-3.595583882E0,7.238455182E0
2.528756333E0,-4.901693400E0,-3.726997131E0,-3.711511657E0,7.189744403E0
2.538775333E0,-4.643278627E0,-3.864148251E0,-3.844194628E0,7.160273072E0
2.548794333E0,-4.270606923E0,-4.047193583E0,-3.925363337E0,7.072929854E0
2.558814333E0,-3.828890710E0,-4.057060760E0,-3.897245831E0,6.805047476E0
2.568833333E0,-3.321972781E0,-3.631957657E0,-3.699890608E0,6.157581513E0
2.578852333E0,-2.751996725E0,-2.560715005E0,-3.029447692E0,4.827867089E0
2.588871333E0,-1.988484846E0,-8.625409073E-1,-1.667001421E0,2.734399850E0
2.598890333E0,-8.787482196E-1,1.252369512E0,3.208232743E-1,1.563187577E0
2.608910333E0,3.901213751E0,2.655854174E0,2.320174586E0,5.258920064E0
2.618929333E0,1.478438657E1,2.196469138E0,5.264629490E0,1.584673110E1
2.628948333E0,1.392889448E1,5.630221971E0,1.262345564E1,1.962307655E1
2.638967333E0,7.099321455E0,1.236662956E1,1.883928210E1,2.362736638E1
2.648986333E0,5.642412246E0,1.654404999E1,1.615284319E1,2.380035187E1
2.659005333E0,7.545170479E0,1.368442941E1,1.345265748E1,2.061958290E1
2.669025333E0,1.453985016E1,8.326175473E0,1.038206117E1,1.971090143E1
2.679044333E0,2.006494972E1,5.566881423E0,2.459972449E0,2.096768563E1
2.689063333E0,1.646767015E1,5.792275214E0,6.445745417E0,1.860866052E1
2.699082333E0,1.204110103E1,7.688621975E0,1.139089532E1,1.827171361E1
2.709101333E0,1.132702736E1,9.031271328E0,1.049105327E1,1.788652032E1
2.719121333E0,1.108155423E1,8.434320311E0,8.084619977E0,1.610278496E1
2.729140333E0,9.820323844E0,6.943584960E0,6.947376879E0,1.388949884E1
2.739159333E0,8.292045860E0,5.699623743E0,6.063082575E0,1.174754041E1
2.749178333E0,6.701975085E0,4.647942951E0,4.913394848E0,9.521622375E0
2.759197333E0,5.136024660E0,3.698733444E0,3.562512615E0,7.262979728E0
2.769217333E0,3.832410734E0,2.842344685E0,2.582157329E0,5.425295551E0
2.779236333E0,2.736392845E0,2.138920841E0,2.005266940E0,4.010476738E0
2.789255333E0,1.623734365E0,1.554086425E0,1.590840268E0,2.753628635E0
2.799274333E0,2.499585289E-1,9.936752433E-1,1.084597108E0,1.492052493E0
2.809293333E0,-1.215871777E0,3.775976917E-1,3.256244230E-1,1.314136774E0
2.819312333E0,-2.454560559E0,-3.937403923E-1,-5.171780384E-1,2.539167611E0
2.829332333E0,-3.471623495E0,-1.297631055E0,-1.451615725E0,3.980352278E0
2.839351333E0,-4.489167073E0,-2.248277807E0,-1.974688926E0,5.395069088E0
2.849370333E0,-5.375759917E0,-3.292568888E0,-2.421931926E0,6.753188789E0
2.859389333E0,-6.056843596E0,-4.326722943E0,-3.256921338E0,8.124864453E0
2.869408333E0,-6.514495810E0,-5.286375870E0,-4.297328698E0,9.426105210E0
2.879428333E0,-6.846135848E0,-6.100387811E0,-5.034294802E0,1.046080454E1
2.889447333E0,-7.126476510E0,-6.899052565E0,-5.402260668E0,1.129460110E1
2.899466333E0,-7.466006196E0,-7.625153373E0,-5.478538181E0,1.199577397E1
2.909485333E0,-7.945089040E0,-8.180625411E0,-5.163577909E0,1.251837085E1
2.919504333E0,-8.771939127E0,-8.606796800E0,-4.744538662E0,1.317324995E1
2.929524333E0,-9.940592884E0,-8.973499083E0,-4.726041287E0,1.420121611E1
2.939543333E0,-1.071037064E1,-9.271843321E0,-5.408898427E0,1.516361764E1
2.949562333E0,-1.068948205E1,-9.236967604E0,-6.678951089E0,1.562673941E1
2.959581333E0,-9.987881656E0,-8.800134986E0,-7.848511748E0,1.545313212E1
2.969600333E0,-9.155310652E0,-8.164735603E0,-8.398471032E0,1.486663836E1
2.979620333E0,-8.445964456E0,-7.514065046E0,-8.517102267E0,1.415402841E1
2.989639333E0,-7.907671537E0,-6.884811671E0,-8.080883607E0,1.323754436E1
2.999658333E0,-7.480476301E0,-6.372355844E0,-7.538165515E0,1.238500642E1
3.009677333E0,-7.146219633E0,-5.926405079E0,-6.909274668E0,1.157276150E1
3.019696333E0,-6.820637310E0,-5.513509208E0,-6.311442475E0,1.080528497E1
3.029716333E0,-6.176572938E0,-5.219234047E0,-5.775919383E0,9.937389094E0
3.039735333E0,-4.874917830E0,-5.125852259E0,-5.139025451E0,8.743498602E0
3.049754333E0,-3.698712979E0,-4.734868244E0,-4.256848132E0,7.363437445E0
3.059773333E0,-3.682317386E0,-3.509385399E0,-3.316196317E0,6.072265246E0
3.069792333E0,-2.225198262E0,-2.744782430E0,-2.672328996E0,4.430200916E0
3.079812333E0,1.284854888E0,-2.431748232E0,-8.720706993E-1,2.885265820E0
3.089831333E0,-7.561841476E-1,1.211836029E0,2.349538134E0,2.749670974E0
3.099850333E0,-1.300731248E0,4.297028736E0,4.237925080E0,6.173845376E0
3.109869333E0,-8.581426316E-1,7.963110158E0,4.305535265E0,9.093138407E0
3.119888333E0,2.442096049E0,1.302099263E1,4.810726219E0,1.409443752E1
3.129908333E0,1.662201091E1,1.841611560E1,2.114997777E1,3.260009387E1
3.139927333E0,3.313321943E1,6.194666562E0,3.196349095E1,4.645265200E1
3.149946333E0,2.360402611E1,-1.488845239E0,-7.666981430E0,2.486260874E1
3.159965333E0,1.110377599E1,3.476390145E0,-1.157690110E1,1.641352396E1
3.169984333E0,1.463935340E1,5.528165839E0,5.435161196E0,1.656539353E1
3.180004333E0,2.064876380E1,6.506531902E0,1.841647462E1,2.842310576E1
3.190023333E0,1.761455940E1,7.485203190E0,1.111061957E1,2.213022451E1
3.200042333E0,1.238603179E1,7.997875364E0,4.173787556E0,1.532319472E1
3.210061333E0,1.155882268E1,7.852684321E0,5.352174003E0,1.496384975E1
3.220080333E0,1.212386836E1,6.662388266E0,6.578522236E0,1.531837316E1
3.230100333E0,1.112511832E1,5.048597091E0,4.753233471E0,1.310915019E1
3.240119333E0,8.779435258E0,3.863073241E0,2.587969169E0,9.934757306E0
3.250138333E0,6.500896940E0,3.023097031E0,1.736722451E0,7.376786669E0
3.260157333E0,4.421212487E0,2.294590971E0,1.498694581E0,5.201764415E0
3.270176333E0,2.278003882E0,1.736231578E0,1.154373394E0,3.088102931E0
3.280196333E0,6.452022403E-1,1.318362942E0,7.130404669E-1,1.631806816E0
3.290215333E0,-1.083196700E-2,5.489070770E-1,3.713794702E-1,6.628265396E-1
3.300234333E0,-5.736831915E-1,-3.206613064E-1,4.062411547E-2,6.584727758E-1
3.310253333E0,-1.254724771E0,-1.064461928E0,-3.530385089E-1,1.682869465E0
3.320272333E0,-1.882877115E0,-1.821986258E0,-8.002955425E-1,2.739586303E0
3.330292333E0,-2.469530016E0,-2.691681818E0,-1.293415212E0,3.875132568E0
3.340311333E0,-3.087660232E0,-3.686684964E0,-1.687459367E0,5.096352701E0
3.350330333E0,-3.763849792E0,-4.720726168E0,-1.963052382E0,6.348653043E0
3.360349333E0,-4.442678200E0,-5.689636699E0,-2.220462602E0,7.552470425E0
3.370368333E0,-5.047871452E0,-6.526698364E0,-2.609205672E0,8.653713190E0
3.380388333E0,-5.592709159E0,-7.105931733E0,-3.350575606E0,9.643599868E0
3.390407333E0,-6.138222220E0,-7.585879380E0,-4.007242482E0,1.054899665E1
3.400426333E0,-6.648528026E0,-8.130617099E0,-4.575675459E0,1.145629370E1
3.410445333E0,-7.323240579E0,-8.556793166E0,-5.178010007E0,1.239598118E1
3.420464333E0,-8.261649109E0,-8.884020896E0,-5.964204404E0,1.351859488E1
3.430484333E0,-9.217470063E0,-9.192487249E0,-6.412039143E0,1.451129981E1
3.440507167E0,-1.007636640E1,-8.933225800E0,-6.651483793E0,1.501925164E1
3.450526167E0,-1.073360747E1,-8.578919030E0,-7.050113043E0,1.544384263E1
3.460545167E0,-1.098216793E1,-8.134175715E0,-7.565154508E0,1.562063987E1
3.470564167E0,-1.106219293E1,-7.403862573E0,-8.062218125E0,1.556241159E1
3.480584167E0,-1.117191944E1,-6.485491281E0,-8.420284070E0,1.541994049E1
3.490603167E0,-1.107284889E1,-5.598400254E0,-8.220126277E0,1.488356624E1
3.500622167E0,-1.057746226E1,-4.885007785E0,-7.221448740E0,1.370749178E1
3.510641167E0,-9.779838892E0,-4.315047516E0,-5.958657736E0,1.223807525E1
3.520660167E0,-8.963623136E0,-3.908635622E0,-5.069900837E0,1.101489295E1
3.530680167E0,-8.200826372E0,-3.663170094E0,-4.763157073E0,1.016661368E1
3.540699167E0,-7.422381874E0,-3.493776256E0,-4.617477204E0,9.413783562E0
3.550718167E0,-6.688280321E0,-3.197040587E0,-4.546614212E0,8.696313183E0
3.560737167E0,-5.959262338E0,-2.532470614E0,-4.680207887E0,7.989403037E0
3.570756167E0,-5.180398010E0,-1.318015033E0,-4.590905117E0,7.046282492E0
3.580776167E0,-4.569979101E0,5.038917026E-1,-3.399881083E0,5.718199648E0
3.590795167E0,-3.988817906E0,2.717746951E0,-8.298806995E-1,4.897501276E0
3.600814167E0,-2.911884159E0,5.144304317E0,3.129208792E0,6.688414157E0
3.610833167E0,2.401823351E0,7.607846199E0,1.728448992E1,1.903685034E1
3.620852167E0,2.588925832E1,1.677614118E0,5.716565934E1,6.277723069E1
3.630872167E0,3.242935967E1,3.338452866E0,-3.747191074E0,3.281539391E1
3.640891167E0,1.587978173E1,9.461969631E0,-1.589935821E1,2.438208212E1
3.650910167E0,9.211461464E0,1.115651319E1,-2.176503527E0,1.463065195E1
3.660929167E0,8.492574366E0,1.205195112E1,7.827244840E0,1.669248654E1
3.670948167E0,9.747563431E0,9.144123759E0,7.257207388E0,1.520845328E1
3.680968167E0,1.203908841E1,6.368213092E0,2.901184631E0,1.392518079E1
3.690987167E0,1.516862465E1,4.488285605E0,3.002381223E0,1.610112339E1
3.701006167E0,1.790962393E1,2.074747065E0,5.924126419E0,1.897773639E1
3.711025167E0,2.087503467E1,-8.407107662E-1,8.132722682E0,2.241907771E1
3.721045167E0,1.992345646E1,-3.438913586E0,7.595657678E0,2.159778367E1
3.731064167E0,1.439110986E1,-2.733614248E0,4.538710239E0,1.533546806E1
3.741083167E0,9.249567769E0,4.992323488E-2,2.886044436E0,9.689491665E0
3.751102167E0,6.048194979E0,1.653723857E0,3.114023866E0,7.000900638E0
3.761121167E0,3.972796535E0,2.374739048E0,2.409110444E0,5.217883765E0
3.771141167E0,2.707994673E0,2.406510626E0,7.827196893E-1,3.706370010E0
3.781160167E0,1.686886632E0,1.941999190E0,-2.251832914E-1,2.582180257E0
3.791179167E0,8.510563910E-1,1.295514070E0,-4.997890037E-1,1.628632167E0
3.801198167E0,1.950379711E-1,5.396700843E-1,-6.792456070E-1,8.891896337E-1
3.811217167E0,-4.563400984E-1,-2.537973721E-1,-8.911373001E-1,1.032852884E0
3.821237167E0,-1.157414238E0,-9.792529397E-1,-1.037901536E0,1.837330574E0
3.831256167E0,-1.873474208E0,-1.655025739E0,-1.218749192E0,2.781072706E0
3.841275167E0,-2.651737441E0,-2.323938293E0,-1.435770940E0,3.807077467E0
3.851294167E0,-3.554423577E0,-3.025813648E0,-1.732499592E0,4.979059151E0
3.861313167E0,-4.563191069E0,-3.701739205E0,-2.094545737E0,6.238005107E0
3.871333167E0,-5.822533970E0,-4.050736411E0,-2.570960496E0,7.544548044E0
3.881352167E0,-7.305023578E0,-4.157607141E0,-3.282733871E0,9.023602844E0
3.891371167E0,-8.585423473E0,-4.430285319E0,-4.229283480E0,1.054626773E1
3.901390167E0,-9.518343222E0,-4.741175343E0,-5.300997418E0,1.188184224E1
3.911409167E0,-1.028051609E1,-5.127249159E0,-6.190212153E0,1.304976710E1
3.921429167E0,-1.116702883E1,-5.393490429E0,-7.073787249E0,1.427693027E1
3.931448167E0,-1.159082215E1,-5.859619351E0,-7.400685196E0,1.494832561E1
3.941467167E0,-1.197249681E1,-6.150837003E0,-7.203076204E0,1.526623014E1
3.951486167E0,-1.248463806E1,-6.195576389E0,-6.996536760E0,1.559496332E1
3.961505167E0,-1.295573419E1,-5.814330912E0,-6.819461435E0,1.575317577E1
3.971525167E0,-1.296497513E1,-5.413777344E0,-7.097387781E0,1.574079028E1
3.981544167E0,-1.240534982E1,-5.109592322E0,-7.712507851E0,1.547525170E1
3.991563167E0,-1.156880855E1,-4.740091854E0,-7.785043731E0,1.472795668E1
4.001582167E0,-1.041199658E1,-4.548082156E0,-6.906870292E0,1.329660037E1
4.011602167E0,-9.323404654E0,-4.233209008E0,-6.545832793E0,1.215293626E1
4.021621167E0,-8.284943247E0,-3.724367053E0,-6.187024836E0,1.099047182E1
4.031640167E0,-7.515066674E0,-3.060409576E0,-5.541656535E0,9.826102536E0
4.041659167E0,-6.957017768E0,-2.393793078E0,-4.781181116E0,8.774396525E0
4.051678167E0,-6.438198416E0,-1.635644558E0,-4.065070860E0,7.787845213E0
4.061698167E0,-5.879566543E0,-6.497338325E-1,-3.849568219E0,7.057664788E0
4.071717167E0,-5.176693214E0,3.140337798E-1,-3.983022146E0,6.539207541E0
4.081736167E0,-4.329410031E0,1.502055853E0,-3.609421026E0,5.833342365E0
4.091755167E0,-3.442537690E0,3.222786755E0,-2.236854394E0,5.219285181E0
4.101774167E0,-2.392512245E0,5.359916886E0,-1.484903339E-1,5.871530742E0
4.111794167E0,-1.398227137E-1,7.542937428E0,2.022977279E0,7.810754925E0
4.121813167E0,5.208911372E0,9.319542568E0,5.580511283E0,1.204693893E1
4.131832167E0,1.775157720E1,8.734073728E0,6.296258426E0,2.076163306E1
4.141851167E0,4.055947333E1,-1.007216225E0,3.909572931E0,4.075990826E1
4.151870167E0,4.729502137E1,-1.729723802E1,9.285957330E0,5.120783625E1
4.161890167E0,3.242431002E1,-1.971985641E1,1.248486844E1,3.995097692E1
4.171909167E0,1.865368446E1,-1.085719072E1,9.135021983E0,2.343687609E1
4.181928167E0,1.348933706E1,-2.866933104E0,6.730052830E0,1.534519895E1
4.191947167E0,1.203949421E1,9.113373837E-1,7.794177082E0,1.437112219E1
4.201966167E0,1.105138259E1,2.493740704E0,7.322220240E0,1.348950367E1
4.211986167E0,1.074716249E1,3.158858854E0,4.571563697E0,1.209872247E1
4.222005167E0,1.031777689E1,2.909572462E0,2.508378916E0,1.100972736E1
4.232024167E0,9.486196985E0,1.884513751E0,1.174151893E0,9.742584769E0
4.242043167E0,8.135030578E0,5.180942971E-1,3.735917643E-1,8.160068321E0
4.252063167E0,6.434790074E0,-5.121807155E-1,-8.605931997E-2,6.455715188E0
4.262082167E0,4.635559133E0,-8.895167443E-1,-3.953817058E-1,4.736662877E0
4.272101167E0,3.032771249E0,-7.862543312E-1,-3.651887307E-1,3.154244780E0
4.282120167E0,1.716905653E0,-5.932979688E-1,2.112949848E-2,1.816649101E0
4.292139167E0,6.498993087E-1,-4.664511037E-1,3.393136320E-1,8.689530968E-1
4.302159167E0,-2.622628248E-1,-5.294048586E-1,3.475877345E-1,6.854695666E-1
4.312178167E0,-1.127228572E0,-6.716281468E-1,1.281961101E-1,1.318394048E0
4.322197167E0,-1.973458672E0,-8.477535912E-1,-2.910021821E-1,2.167465697E0
4.332216167E0,-2.829221486E0,-1.098673402E0,-8.891635725E-1,3.162623804E0
4.342235167E0,-3.766572255E0,-1.496976085E0,-1.609239409E0,4.360923690E0
4.352255167E0,-4.765896494E0,-2.042511365E0,-2.445591515E0,5.732934669E0
4.362274167E0,-5.785298316E0,-2.608172469E0,-3.221902948E0,7.117084996E0
4.372293167E0,-6.771580340E0,-3.053342631E0,-3.745224071E0,8.318888440E0
4.382312167E0,-7.909437397E0,-3.400076672E0,-4.266575852E0,9.608506169E0
4.392332167E0,-9.142997586E0,-3.636711443E0,-4.704154574E0,1.090638094E1
4.402351167E0,-1.019548588E1,-3.751112217E0,-5.350191797E0,1.210963779E1
4.412370167E0,-1.143601712E1,-4.075650812E0,-5.858002596E0,1.347997075E1
4.422389167E0,-1.218382104E1,-4.422275803E0,-6.647880739E0,1.456696045E1
4.432408167E0,-1.279535442E1,-4.523087063E0,-7.404219253E0,1.545968545E1
4.442424208E0,-1.363588933E1,-4.059968580E0,-8.020777738E0,1.633259619E1
4.452443208E0,-1.391219834E1,-3.598908024E0,-8.206181252E0,1.654819665E1
4.462462208E0,-1.400251443E1,-3.290412727E0,-7.526897346E0,1.623426654E1
4.472481208E0,-1.388253308E1,-2.905615651E0,-7.290205564E0,1.594723876E1
4.482500208E0,-1.358452271E1,-2.727551855E0,-7.124735209E0,1.558013634E1
4.492520208E0,-1.304884993E1,-2.651710837E0,-6.878000250E0,1.498702580E1
4.502539208E0,-1.206781111E1,-2.709590670E0,-6.395197992E0,1.392381068E1
4.512558208E0,-1.114600925E1,-2.431479260E0,-5.857541835E0,1.282405591E1
4.522577208E0,-1.043553162E1,-1.899567407E0,-5.383890470E0,1.189516512E1
4.532597208E0,-9.571573350E0,-1.531100728E0,-4.948065913E0,1.088313567E1
4.542616208E0,-8.520410036E0,-1.268118988E0,-4.611843996E0,9.771111400E0
4.552635208E0,-7.209753724E0,-8.461488229E-1,-4.313413804E0,8.444054431E0
4.562654208E0,-5.945427241E0,-1.075946152E-1,-3.957673296E0,7.143028741E0
4.572673208E0,-4.708960401E0,9.423366898E-1,-3.162168378E0,5.749923073E0
4.582693208E0,-3.537555529E0,2.198137787E0,-1.866985845E0,4.564180649E0
4.592712208E0,-2.322717540E0,3.554522687E0,-4.531440103E-1,4.270244466E0
4.602731208E0,-8.437111187E-1,4.827912648E0,4.630848616E-1,4.922909361E0
4.612750208E0,2.195087441E0,5.527762381E0,1.392951195E0,6.108590577E0
4.622770208E0,9.668509660E0,5.407478138E0,3.159259973E0,1.151962770E1
4.632789208E0,3.146978013E1,3.495438912E0,1.522778386E0,3.169990550E1
4.642808208E0,5.555174829E1,-1.194548853E1,2.000157058E-1,5.682192747E1
4.652827208E0,4.232388235E1,-2.361608073E1,7.335340222E0,4.901874644E1
4.662846208E0,2.145322607E1,-2.174972200E1,2.012442292E1,3.658256024E1
4.672866208E0,1.295378122E1,-1.342993286E1,1.524423500E1,2.409461029E1
4.682885208E0,1.120879666E1,-6.325237811E0,6.629385996E0,1.447737941E1
4.692904208E0,1.083685995E1,-2.762088434E0,8.711385947E0,1.417585663E1
4.702923208E0,1.162711582E1,-1.183240367E0,7.882441387E0,1.409690612E1
4.712942208E0,1.228446799E1,-6.428782645E-1,5.419892362E0,1.344234650E1
4.722962208E0,1.092544176E1,-1.685208482E-1,3.009245270E0,1.133354463E1
4.732981208E0,8.514776244E0,4.278451547E-1,7.255421063E-1,8.556335507E0
4.743000208E0,6.350665598E0,6.749096042E-1,-8.703884554E-1,6.445466048E0
4.753019208E0,4.657640558E0,4.185967599E-1,-1.754658493E0,4.994763783E0
4.763038208E0,3.428228969E0,-5.622097850E-2,-1.931044723E0,3.935079210E0
4.773058208E0,2.194469390E0,-3.253013644E-1,-1.591050183E0,2.730010543E0
4.783077208E0,1.089908134E0,-5.206692646E-1,-1.102577296E0,1.635442728E0
4.793096208E0,2.482312614E-1,-7.723233399E-1,-6.947699645E-1,1.068085860E0
4.803115208E0,-5.301360530E-1,-9.960854656E-1,-5.163638136E-1,1.240911793E0
4.813135208E0,-1.293485379E0,-1.173030543E0,-5.939315146E-1,1.844413111E0
4.823154208E0,-2.142691126E0,-1.286124904E0,-8.437517568E-1,2.637642803E0
4.833173208E0,-3.046238557E0,-1.374351055E0,-1.205008527E0,3.552528074E0
4.843192208E0,-4.015700480E0,-1.432454107E0,-1.669439710E0,4.578733892E0
4.853211208E0,-5.008288726E0,-1.421991537E0,-2.194315316E0,5.649781907E0
4.863231208E0,-5.977669373E0,-1.367127698E0,-2.765997005E0,6.726983626E0
4.873250208E0,-7.038713896E0,-1.253526676E0,-3.152579821E0,7.813679157E0
4.883269208E0,-8.079512435E0,-1.142606092E0,-3.443050491E0,8.856560650E0
4.893288208E0,-9.061703162E0,-1.156780400E0,-3.763462999E0,9.880094070E0
4.903308208E0,-9.872600291E0,-1.284890849E0,-4.201358932E0,1.080604451E1
4.913327208E0,-1.064261544E1,-1.470233259E0,-4.547017670E0,1.166628557E1
4.923346208E0,-1.142366078E1,-1.674901010E0,-4.669635537E0,1.245434924E1
4.933365208E0,-1.193762519E1,-1.928848363E0,-4.982374451E0,1.307866225E1
4.943384208E0,-1.263544945E1,-2.178437348E0,-4.930016143E0,1.373700226E1
4.953404208E0,-1.304797870E1,-2.252908802E0,-4.991729411E0,1.415071407E1
4.963423208E0,-1.350421939E1,-2.059368449E0,-5.180662304E0,1.460972969E1
4.973442208E0,-1.409168681E1,-1.404104174E0,-5.930391126E0,1.535306760E1
4.983461208E0,-1.445084151E1,-1.107748281E0,-6.441060044E0,1.586004984E1
4.993481208E0,-1.393393595E1,-1.053439927E0,-7.322491550E0,1.577603211E1
5.003500208E0,-1.318516490E1,-9.841866741E-1,-7.823911343E0,1.536329345E1
5.013519208E0,-1.252196435E1,-6.789026678E-1,-7.789190576E0,1.476251976E1
5.023538208E0,-1.183375057E1,-3.835682836E-1,-7.333961449E0,1.392737476E1
5.033557208E0,-1.105190650E1,-1.173153189E-1,-6.580596828E0,1.286322879E1
5.043577208E0,-1.021186978E1,3.495535684E-1,-5.471757749E0,1.159071201E1
5.053596208E0,-9.297389807E0,1.035677840E0,-4.040445896E0,1.019015647E1
5.063615208E0,-8.145665494E0,1.719619638E0,-2.900273343E0,8.815925561E0
5.073634208E0,-6.711484997E0,2.241134410E0,-2.224820240E0,7.417313490E0
5.083654208E0,-5.242670857E0,2.925131318E0,-1.870359688E0,6.288102759E0
5.093673208E0,-3.826434880E0,3.734330124E0,-1.991397929E0,5.705479040E0
5.103692208E0,-2.248017606E0,4.296698368E0,-2.481648370E0,5.447364377E0
5.113711208E0,5.031306875E-1,4.413134266E0,-2.448000568E0,5.071646805E0
5.123730208E0,1.013294172E1,4.979484757E0,5.435805559E-1,1.130341790E1
5.133750208E0,5.136328949E1,-1.651220079E0,4.517430759E0,5.158799488E1
5.143769208E0,6.308547402E1,-2.444399969E1,1.887924432E0,6.768197996E1
5.153788208E0,2.370366501E1,-2.360239357E1,-4.803327445E0,3.379361880E1
5.163807208E0,8.801516098E0,-2.098405952E1,4.940732335E0,2.328536612E1
5.173827208E0,5.310265839E0,-2.340801341E1,3.626855727E1,4.349186432E1
5.183846208E0,5.037806640E0,-1.790151034E1,1.069856394E1,2.145466939E1
5.193865208E0,5.850894136E0,-1.308773158E1,5.668371545E0,1.541596951E1
5.203884208E0,6.617058311E0,-9.133941418E0,1.036518728E1,1.531833718E1
5.213903208E0,7.224660031E0,-5.714421292E0,5.766739839E0,1.086764057E1
5.223923208E0,7.251135054E0,-3.478305109E0,3.048169599E0,8.600517654E0
5.233942208E0,6.824578918E0,-2.029486107E0,1.676972678E0,7.314774681E0
5.243961208E0,5.809067248E0,-1.117183056E0,1.206403381E-1,5.916748631E0
5.253980208E0,4.296959154E0,-6.219741762E-1,-9.956165189E-1,4.454431737E0
5.264000208E0,3.052768142E0,-3.568649268E-1,-1.659409397E0,3.492905016E0
5.274019208E0,2.121749323E0,-2.705047676E-1,-1.981488068E0,2.915696826E0
5.284038208E0,1.338085016E0,-2.010363373E-1,-2.003079789E0,2.417274449E0
5.294057208E0,3.739475673E-1,-5.884842485E-2,-2.115491633E0,2.149093941E0
5.304076208E0,-5.969983792E-1,7.232421041E-2,-2.046574010E0,2.133097053E0
5.314096208E0,-1.432263780E0,1.212154117E-1,-1.935242147E0,2.410650302E0
5.324115208E0,-2.228140581E0,1.429866421E-1,-1.810908123E0,2.874794577E0
5.334134208E0,-3.060795785E0,2.119329160E-1,-1.699237706E0,3.507248947E0
5.344153208E0,-3.913686447E0,3.722135755E-1,-1.618778849E0,4.251579649E0
5.354173208E0,-4.732984856E0,5.336253789E-1,-1.670527292E0,5.047431339E0
5.364192208E0,-5.598142392E0,6.675590694E-1,-1.825175914E0,5.925883940E0
5.374211208E0,-6.515095149E0,8.051001996E-1,-2.072381281E0,6.883997045E0
5.384230208E0,-7.808944809E0,1.028804438E0,-3.205035193E0,8.503546801E0
5.394249208E0,-9.582516414E0,2.137611942E0,-5.442498867E0,1.122563137E1
5.404269208E0,-1.084293520E1,3.728880811E0,-5.712616256E0,1.281045590E1
5.414288208E0,-1.218718085E1,4.547704718E0,-6.038812537E0,1.434141736E1
5.424307208E0,-1.310075450E1,5.366230125E0,-5.498279550E0,1.518740505E1
5.434326208E0,-1.390661425E1,5.328140193E0,-4.195053295E0,1.547195753E1
5.444346917E0,-1.388545318E1,4.582508515E0,-3.752482220E0,1.509590398E1
5.454365917E0,-1.336184905E1,3.134763355E0,-3.964456651E0,1.428575052E1
5.464384917E0,-1.284020841E1,2.030890024E0,-4.259483764E0,1.367986361E1
5.474403917E0,-1.229461174E1,1.702979193E0,-4.442387301E0,1.318303534E1
5.484423917E0,-1.184866214E1,1.882882378E0,-4.015111373E0,1.265136988E1
5.494442917E0,-1.143845073E1,1.862026821E0,-3.769061123E0,1.218651389E1
5.504461917E0,-1.052548870E1,2.061612903E0,-4.747763401E0,1.172934002E1
5.514480917E0,-9.419865586E0,2.241991173E0,-5.819288181E0,1.129710171E1
5.524499917E0,-8.240158837E0,2.212280447E0,-6.502024283E0,1.072710223E1
5.534519917E0,-7.052055488E0,1.765649651E0,-7.144318703E0,1.019265888E1
5.544538917E0,-5.842105771E0,2.141146291E0,-7.129779017E0,9.463004603E0
5.554557917E0,-4.652871569E0,2.616024695E0,-6.935199468E0,8.751559330E0
5.564576917E0,-3.453705288E0,2.870203744E0,-6.098454137E0,7.573459751E0
5.574596917E0,-1.968608406E0,2.972106387E0,-4.959020087E0,6.107431183E0
5.584615917E0,3.639792341E-1,3.037943696E0,-3.937951807E0,4.986887529E0
5.594634917E0,4.959483186E0,2.901283157E0,-2.406052058E0,6.229205722E0
5.604653917E0,1.280550519E1,4.787428281E-1,1.403776145E-1,1.281522000E1
5.614672917E0,2.402034787E1,-6.154978001E0,2.785771996E0,2.495238248E1
5.624692917E0,2.804751474E1,-1.390778252E1,1.201529142E0,3.132942977E1
5.634711917E0,1.779891275E1,-1.667948436E1,1.405138839E0,2.443319277E1
5.644730917E0,9.333399884E0,-2.552495340E1,1.071219497E1,2.921278351E1
5.654749917E0,5.904304942E0,-2.991769053E1,2.294212130E1,3.816110524E1
5.664769917E0,2.853067601E0,-2.023166553E1,2.332740603E1,3.101012992E1
5.674788917E0,3.732868320E-1,-1.192699144E1,1.065884030E1,1.600010451E1
5.684807917E0,1.740496244E0,-7.905579988E0,1.159472108E1,1.414090092E1
5.694826917E0,3.970902622E0,-4.821750852E0,7.302085937E0,9.609256368E0
5.704846917E0,5.508692856E0,-3.397594821E0,3.252064933E0,7.243291647E0
5.714865917E0,6.467440342E0,-2.291523814E0,1.588561608E0,7.042896701E0
5.724884917E0,6.865774891E0,-1.663845679E0,1.056749743E-1,7.065296491E0
5.734903917E0,6.515120877E0,-1.653131826E0,-3.457762671E-1,6.730468491E0
5.744922917E0,5.760323104E0,-2.042010843E0,-3.379149780E-1,6.120891853E0
5.754942917E0,4.853545087E0,-2.272308109E0,-4.933579436E-1,5.381792091E0
5.764961917E0,3.776853999E0,-2.555740778E0,-8.200983077E-1,4.633465042E0
5.774980917E0,2.659810692E0,-2.649696178E0,-1.602455762E0,4.082076337E0
5.784999917E0,1.893091616E0,-2.539313611E0,-2.471936730E0,4.017758165E0
5.795019917E0,1.115140039E0,-1.710483656E0,-2.257455597E0,3.043911532E0
5.805038917E0,5.618513507E-1,-9.438838631E-1,-2.081997027E0,2.353997729E0
5.815057917E0,1.462026107E-1,-2.175813264E-1,-2.036396931E0,2.053199771E0
5.825076917E0,-2.477149522E-1,4.255831593E-1,-1.942426329E0,2.003872193E0
5.835095917E0,-7.983677155E-1,1.325908189E0,-1.571680112E0,2.205810942E0
5.845115917E0,-1.775766065E0,2.400422359E0,-1.065850934E0,3.170396005E0
5.855134917E0,-2.122926368E0,2.004827229E0,-1.415979576E0,3.245172837E0
5.865153917E0,-2.711602405E0,2.424731573E0,-1.216315581E0,3.835561809E0
5.875172917E0,-3.115257336E0,3.062980304E0,-9.339488590E-1,4.467542623E0
5.885192917E0,-3.682654186E0,3.798254224E0,-6.898609346E-1,5.335221187E0
5.895211917E0,-4.373619075E0,4.369572802E0,-7.365714169E-1,6.226094099E0
5.905230917E0,-5.211677105E0,4.778307794E0,-1.256481859E0,7.181403086E0
5.915249917E0,-6.065789251E0,5.462195213E0,-2.414877260E0,8.512403184E0
5.925269917E0,-6.884321090E0,6.411937401E0,-3.773395956E0,1.013633736E1
5.935288917E0,-7.796494333E0,8.587078235E0,-6.646049976E0,1.336761822E1
5.945307917E0,-9.398961790E0,1.192124480E1,-1.041317070E1,1.840898379E1
5.955326917E0,-1.091883674E1,1.033402162E1,-7.203665603E0,1.667050679E1
5.965346917E0,-1.177546787E1,8.929384764E0,-6.182931785E0,1.601949441E1
5.975365917E0,-1.148203704E1,7.920659373E0,-7.802470772E0,1.598288365E1
5.985384917E0,-1.045517944E1,5.536174185E0,-8.562502972E0,1.460398777E1
5.995403917E0,-9.071642259E0,2.340647735E0,-7.508551122E0,1.200631771E1
6.005422917E0,-7.474732581E0,1.914828640E0,-5.600050923E0,9.534084446E0
6.015442917E0,-6.145053522E0,2.796563033E0,-5.777913283E0,8.886322608E0
6.025461917E0,-4.702772877E0,8.590404716E-1,-7.167941455E0,8.615881148E0
6.035480917E0,-3.285443471E0,-9.707307690E-1,-7.235004340E0,8.005107422E0
6.045499917E0,-1.954580351E0,-5.709513724E-3,-4.864413307E0,5.242416787E0
6.055519917E0,-1.326366611E0,1.788221803E-1,-1.852169877E0,2.285116849E0
6.065538917E0,-1.032889010E0,-4.686087263E-1,-4.272314894E-1,1.212015095E0
6.075557917E0,-1.007162431E0,3.733365333E-1,-6.025789618E-1,1.231607784E0
6.085576917E0,-7.366293043E-1,3.893502443E0,-5.132491772E0,6.484169631E0
6.095596917E0,8.474492437E-1,5.818443843E0,-7.420675657E0,9.467781481E0
6.105615917E0,2.552890261E0,4.801767992E0,-7.323726482E0,9.122016999E0
6.115634917E0,5.017109835E0,3.603867048E-1,-5.039564313E0,7.120286380E0
6.125653917E0,1.012255473E1,-9.336319984E0,3.339686921E-1,1.377477841E1
6.135673917E0,1.312903280E1,-2.122016073E1,7.016116161E0,2.592089138E1
6.145692917E0,1.137233977E1,-2.027756852E1,6.241494573E0,2.407210318E1
6.155711917E0,6.280437030E0,-1.648004636E1,7.600964026E0,1.920443885E1
6.165730917E0,2.795909314E0,-2.056237470E1,1.485059108E1,2.551800183E1
6.175749917E0,1.374607894E0,-1.462068675E1,1.391721525E1,2.023222450E1
6.185769917E0,4.983081964E-1,-3.479189208E0,1.574252302E1,1.613009918E1
6.195788917E0,-1.327443961E0,-2.682700787E0,1.445084268E1,1.475756908E1
6.205807917E0,-2.511924668E0,-9.637228811E-1,8.906623893E0,9.304110731E0
6.215826917E0,-2.228743722E0,1.286655246E0,3.966500545E0,4.728203345E0
6.225846917E0,-1.565509107E0,2.617450538E0,6.736515757E-1,3.123407199E0
6.235865917E0,-1.309078587E0,4.363225064E0,-1.358328954E0,4.753575208E0
6.245884917E0,-1.178013102E0,4.732118883E0,-2.174830347E0,5.339527229E0
6.255903917E0,-1.016166997E0,2.991488153E0,-1.991560189E0,3.734689910E0
6.265923917E0,-5.102321309E-1,8.526661295E-1,-1.422141080E0,1.734895273E0
6.275942917E0,1.834406036E-1,-2.030570766E0,-5.456007689E-1,2.110580083E0
6.285961917E0,5.157694441E-1,-5.655155084E0,4.927390158E-1,5.699963936E0
6.295980917E0,5.061327942E-1,-8.855733821E0,1.495939666E0,8.995444814E0
6.305999917E0,6.140161888E-1,-1.184634548E1,2.279375054E0,1.207925774E1
6.316019917E0,5.942124733E-1,-1.362373180E1,2.241355873E0,1.381965386E1
6.326038917E0,3.783958367E-1,-1.372648376E1,1.904431121E0,1.386313087E1
6.336057917E0,-2.715271533E-2,-1.202214201E1,1.142785090E0,1.207636508E1
6.346076917E0,-4.718211865E-1,-8.987924749E0,1.149504125E-1,9.001034392E0
6.356096917E0,-8.315725914E-1,-5.198026196E0,-8.601973432E-1,5.333941205E0
6.366115917E0,-1.224521855E0,-1.110354093E0,-1.450401550E0,2.199091777E0
6.376134917E0,-1.520685375E0,2.085412971E0,-1.699647596E0,3.090345162E0
6.386153917E0,-1.781660350E0,4.443604399E0,-1.787473214E0,5.110283177E0
6.396173917E0,-2.072071964E0,6.083534381E0,-1.724405876E0,6.654055036E0
6.406192917E0,-2.341632698E0,7.161218911E0,-1.599139806E0,7.702178140E0
6.416211917E0,-2.616721975E0,7.899197168E0,-1.447583485E0,8.446303791E0
6.426230917E0,-2.891084151E0,8.548035792E0,-1.329309515E0,9.121093534E0
6.436250917E0,-3.047154523E0,9.764733195E0,-1.229518594E0,1.030276085E1
6.446272458E0,-3.267896854E0,1.177912705E1,-8.630040067E-1,1.225445878E1
6.456291458E0,-4.012955504E0,1.171778742E1,-5.789083000E-1,1.239941486E1
6.466310458E0,-4.432224548E0,1.251981725E1,-6.892960936E-1,1.329908145E1
6.476330458E0,-4.612066775E0,1.328219126E1,-1.964813563E0,1.419676924E1
6.486349458E0,-4.596957570E0,1.361790681E1,-3.105876063E0,1.470462073E1
6.496368458E0,-4.526187549E0,1.331141097E1,-3.303226608E0,1.444269163E1
6.506387458E0,-4.544350755E0,1.245021901E1,-2.967658995E0,1.358182893E1
6.516406458E0,-4.545837702E0,1.117827185E1,-2.215389558E0,1.226891816E1
6.526426458E0,-4.414979062E0,1.021836369E1,-2.477003927E0,1.140361983E1
6.536445458E0,-4.278539255E0,9.281555547E0,-3.021052845E0,1.065738860E1
6.546464458E0,-4.094230048E0,8.415363053E0,-3.530326617E0,1.000221281E1
6.556483458E0,-4.143806543E0,7.481083826E0,-3.761719651E0,9.342819843E0
6.566503458E0,-4.040820995E0,6.641475114E0,-3.713457318E0,8.615520371E0
6.576522458E0,-3.937303936E0,5.415263706E0,-3.420412996E0,7.518421932E0
6.586541458E0,-3.703645982E0,3.690261998E0,-2.471651385E0,5.783086352E0
6.596560458E0,-3.101775118E0,1.989391750E0,-5.405019969E-1,3.724356431E0
6.606580458E0,-1.507109017E0,-8.646277785E-2,1.789356894E0,2.341079131E0
6.616599458E0,3.573376742E-1,-2.875327367E0,3.079456004E0,4.228267607E0
6.626618458E0,1.763204491E0,-7.143517050E0,2.696126579E0,7.836314469E0
6.636637458E0,3.484897844E0,-1.535423399E1,5.027128454E0,1.652782608E1
6.646657458E0,5.402772299E0,-2.354276366E1,9.603069377E0,2.599366482E1
6.656676458E0,6.706890839E0,-2.431386406E1,9.174890639E0,2.683887085E1
6.666695458E0,8.319957544E0,-2.368052407E1,9.011303671E0,2.666819280E1
6.676714458E0,1.021964190E1,-2.222656010E1,4.279343247E0,2.483493171E1
6.686734458E0,7.391739541E0,-1.458381421E1,5.295741355E-1,1.635866434E1
6.696753458E0,3.387558953E0,-8.156661183E0,3.508406575E0,9.503451689E0
6.706772458E0,1.961477727E-1,-5.271317536E0,3.030849270E0,6.083692120E0
6.716791458E0,-1.401431996E0,-3.575767084E0,1.265924381E0,4.043845499E0
6.726811458E0,-1.174960856E0,-2.714269320E0,1.047649722E0,3.137731807E0
6.736830458E0,-1.353773680E-1,-3.273009367E0,1.083122001E0,3.450227618E0
6.746849458E0,9.367028975E-1,-4.072641835E0,6.768315840E-1,4.233429441E0
6.756868458E0,1.702763285E0,-3.574966600E0,-4.360901673E-1,3.983712292E0
6.766887458E0,2.247965858E0,-2.515459895E0,-1.790804665E0,3.819407065E0
6.776907458E0,2.308463490E0,-1.617871946E0,-2.962194772E0,4.089145532E0
6.786926458E0,1.914968681E0,-8.221319693E-1,-2.983491501E0,3.639261952E0
6.796945458E0,1.089978593E0,-6.160550398E-1,-2.112902924E0,2.455999982E0
6.806964458E0,4.306085488E-1,-1.225875193E0,-5.827289803E-1,1.423996762E0
6.816984458E0,-2.326642191E-1,-1.122243821E0,1.602344665E0,1.970043720E0
6.827003458E0,-8.590401793E-1,-5.835146999E-1,1.377840235E0,1.725364642E0
6.837022458E0,-1.218785737E0,1.058167108E0,3.181421797E-1,1.645105087E0
6.847041458E0,-1.795976088E0,4.014178450E0,-6.127545058E-1,4.440115631E0
6.857061458E0,-1.177750270E0,3.344801481E0,-2.357356446E0,4.258159468E0
6.867080458E0,-1.871690514E0,3.925735220E0,-9.111512230E-1,4.443514257E0
6.877099458E0,-3.006239216E0,3.662475445E0,1.995651048E0,5.141383443E0
6.887118458E0,-1.446046544E0,2.533450608E0,-1.607164232E-1,2.921515421E0
6.897138458E0,-9.808672097E-1,4.147775048E0,-3.462789522E0,5.491543463E0
6.907157458E0,-5.132827987E0,1.090520454E1,-2.561841295E1,2.831205559E1
6.917176458E0,-1.860296630E0,3.739888487E0,1.351920113E0,4.390348214E0
6.927195458E0,3.347794086E-1,2.290307593E-1,1.548660676E1,1.549191794E1
6.937215458E0,1.368920892E-1,1.800951777E0,1.017065977E1,1.032978639E1
6.947234458E0,1.871414526E0,1.263297958E0,7.257621371E0,7.600735623E0
6.957253458E0,1.582752692E0,2.019821244E0,1.800113286E0,3.134516196E0
6.967272458E0,5.431876230E-1,2.021622772E0,-1.789950971E0,2.754257777E0
6.977292458E0,-5.363396564E-1,1.459864976E0,-4.144118199E0,4.426350825E0
6.987311458E0,-1.179141615E0,6.476995862E-1,-4.415982737E0,4.616361471E0
6.997330458E0,-1.589322039E0,5.680084687E-1,-3.698871439E0,4.065738319E0
7.007349458E0,-1.375737869E0,7.100735897E-1,-2.356803299E0,2.819819316E0
7.017369458E0,-4.917522982E-1,4.853750324E-1,-6.568072823E-1,9.533126722E-1
7.027388458E0,1.353987104E-1,2.617547017E-1,6.998385503E-1,7.593565244E-1
7.037407458E0,6.380657136E-2,1.011872363E-1,1.427618752E0,1.432621874E0
7.047426458E0,-6.316197431E-1,-2.585533512E-1,1.358968931E0,1.520720189E0
7.057446458E0,-1.248493685E0,-6.380446637E-1,8.749644864E-1,1.652694868E0
7.067465458E0,-1.495588540E0,-6.114866102E-1,6.476738584E-1,1.740741906E0
7.077484458E0,-1.247756059E0,-2.659927636E-1,7.670780951E-1,1.488642381E0
7.087503458E0,-7.734305102E-1,3.843345612E-1,9.621616745E-1,1.292928032E0
7.097523458E0,-5.683745044E-1,1.526335539E0,1.035426117E0,1.929988860E0
7.107542458E0,-8.962822652E-1,2.924831064E0,7.511648977E-1,3.149953548E0
7.117561458E0,-1.329149886E0,4.296472666E0,1.776910365E-1,4.500876680E0
7.127580458E0,-1.594667856E0,5.198824341E0,-2.427891847E-1,5.443315780E0
7.137599458E0,-1.731725421E0,5.638783464E0,-1.355723727E-1,5.900265397E0
7.147619458E0,-1.780440329E0,5.588138976E0,-2.193525942E-1,5.869018703E0
7.157638458E0,-1.381416977E0,4.967369326E0,-8.345649040E-1,5.222984727E0
7.167657458E0,-4.487527514E-1,3.698424711E0,-1.767840164E0,4.123709886E0
7.177676458E0,5.259576327E-1,1.378538978E0,-1.063883346E0,1.819024167E0
7.187696458E0,1.434071739E0,-2.257256792E0,2.264151974E0,3.504019711E0
7.197715458E0,2.009066461E0,-5.089455680E0,5.885433054E0,8.035995856E0
7.207734458E0,2.887487821E0,-6.396980808E0,7.953908980E0,1.060771500E1
7.217753458E0,4.533407106E0,-7.837462850E0,8.139272733E0,1.217478396E1
7.227773458E0,5.944416257E0,-9.888951445E0,5.973089833E0,1.299250736E1
7.237792458E0,6.489229991E0,-1.146270615E1,2.732134025E0,1.345244567E1
7.247811458E0,6.358044199E0,-1.156054410E1,6.031837101E-1,1.320737432E1
7.257830458E0,6.028939514E0,-1.099008506E1,-5.883420150E-1,1.254895325E1
7.267850458E0,5.661600469E0,-1.006209218E1,-1.694339494E0,1.166919900E1
7.277869458E0,5.444101589E0,-8.930039068E0,-2.717274789E0,1.080589756E1
7.287888458E0,5.560244833E0,-8.074016052E0,-3.686732619E0,1.047368394E1
7.297907458E0,5.631618286E0,-7.454382516E0,-4.553024807E0,1.039292924E1
7.307927458E0,5.161928995E0,-6.514741393E0,-4.879839723E0,9.638475091E0
7.317946458E0,4.420252374E0,-5.399858047E0,-4.233565396E0,8.162118226E0
7.327965458E0,3.545662694E0,-4.483553161E0,-3.019679918E0,6.464707240E0
7.337984458E0,2.798921800E0,-3.680372602E0,-1.576530962E0,4.885136191E0
7.348004458E0,2.279065152E0,-2.436219597E0,-1.917826800E-1,3.341569166E0
7.358023458E0,1.847542976E0,-9.094613045E-1,8.604343016E-1,2.231788991E0
7.368042458E0,1.417187319E0,3.248853350E-1,1.355147484E0,1.987560082E0
7.378061458E0,5.746690321E-1,1.222575610E0,1.465353027E0,1.993036656E0
7.388081458E0,-2.496971583E-1,1.589283155E0,1.435407243E0,2.156052775E0
7.398100458E0,-3.300566125E-1,1.798572544E0,1.298726384E0,2.242875562E0
7.408119458E0,2.051600862E-1,2.840433522E0,8.515240221E-1,2.972414240E0
7.418138458E0,-1.178623259E-2,3.265599775E0,1.225881772E0,3.488132298E0
7.428158458E0,-1.010975985E0,3.192876785E0,1.627323385E0,3.723535418E0
7.438177458E0,-2.499795789E0,3.543695106E0,1.860117267E0,4.718769992E0
7.448196708E0,-3.645988051E0,4.578859853E0,1.475866467E0,6.036337320E0
7.458215708E0,-4.437945464E0,5.868091382E0,6.797049057E-1,7.388630128E0
7.468235708E0,-5.169047980E0,7.378367543E0,-8.141166061E-2,9.009217085E0
7.478254708E0,-5.426963400E0,8.794940320E0,-8.228434293E-1,1.036725510E1
7.488273708E0,-5.506354555E0,9.855895965E0,-1.499507783E0,1.138890466E1
7.498292708E0,-5.661396986E0,1.080736425E1,-1.708228823E0,1.231943926E1
7.508312708E0,-5.717044353E0,1.146492341E1,-1.533802726E0,1.290277551E1
7.518331708E0,-5.504417372E0,1.128763350E1,-7.825795023E-1,1.258259557E1
7.528350708E0,-5.080946812E0,1.045363109E1,-5.094781324E-2,1.162312433E1
7.538369708E0,-4.725013931E0,9.381747002E0,9.502909496E-2,1.050485431E1
7.548389708E0,-5.082016268E0,8.532450038E0,1.385088444E-2,9.931252934E0
7.558408708E0,-6.172216178E0,7.829524085E0,4.097332580E-1,9.978255423E0
7.568427708E0,-7.993765941E0,7.925723646E0,1.138575606E0,1.131431587E1
7.578446708E0,-8.046807203E0,8.546023765E0,1.368370231E0,1.181770136E1
7.588466708E0,-5.287710789E0,7.142661602E0,2.524176339E0,9.238450430E0
7.598485708E0,-2.695341883E0,5.785365559E0,3.760077753E0,7.407665437E0
7.608504708E0,-1.599962217E0,4.855790418E0,3.559133509E0,6.229447087E0
7.618523708E0,-1.602126564E0,3.989913089E0,1.998752557E0,4.741437311E0
7.628543708E0,-1.400090937E0,3.544904310E0,-2.262369232E-1,3.818086477E0
7.638562708E0,-4.635277882E-1,3.272340446E0,-1.730700989E0,3.730736645E0
7.648581708E0,2.622856289E-2,1.751142855E0,-2.273158879E0,2.869571488E0
7.658600708E0,3.145264077E-1,-4.829250491E-1,-2.792763512E0,2.851608581E0
7.668620708E0,1.198939410E0,-2.662029710E0,-2.549094833E0,3.875789256E0
7.678639708E0,2.562603363E0,-4.778620620E0,-2.008071849E0,5.782257654E0
7.688658708E0,3.356833296E0,-6.204871123E0,-5.469415355E-1,7.075867471E0
7.698677708E0,3.852540944E0,-6.741159031E0,1.206584644E0,7.857553265E0
7.708697708E0,4.332945258E0,-6.740620503E0,1.551308413E0,8.161919943E0
7.718716708E0,4.783232903E0,-8.998061482E0,1.657825386E0,1.032437952E1
7.728735708E0,5.743402432E0,-1.139491821E1,3.778000638E0,1.330804724E1
7.738754708E0,6.096952572E0,-1.087891780E1,4.360496753E0,1.321126849E1
7.748774708E0,5.909976742E0,-1.024125788E1,4.411070491E0,1.262017159E1
7.758793708E0,6.097962971E0,-9.569872980E0,4.218201837E0,1.210623178E1
7.768812708E0,6.684898292E0,-9.836234118E0,3.829339192E0,1.249412684E1
7.778831708E0,7.252942429E0,-1.049992116E1,3.760502261E0,1.330394286E1
7.788851708E0,7.608739069E0,-1.031013340E1,3.087295366E0,1.318040795E1
7.798870708E0,7.387161171E0,-9.603789169E0,1.955977251E0,1.227309104E1
7.808889708E0,6.828275528E0,-8.737993117E0,9.997065731E-1,1.113450868E1
7.818908708E0,6.330280450E0,-7.940584345E0,7.394470775E-1,1.018195032E1
7.828928708E0,6.083049062E0,-6.498386146E0,1.015336838E0,8.958985283E0
7.838947708E0,5.392069556E0,-5.586678341E0,1.421478006E0,7.893414261E0
7.848966708E0,4.063944979E0,-4.908379691E0,8.740166527E-1,6.432087149E0
7.858985708E0,3.258990667E0,-3.144884593E0,4.371501213E-1,4.549991154E0
7.869005708E0,2.483516263E0,-1.926662235E0,-9.419864416E-3,3.143241819E0
7.879024708E0,1.683537932E0,-1.471945324E0,-7.289981031E-1,2.352097200E0
7.889043708E0,7.791806620E-1,-1.423761343E0,-1.013205528E0,1.913322845E0
7.899062708E0,-7.660220879E-1,-4.777952868E-1,-1.241692497E0,1.535212829E0
7.909082708E0,-1.887336494E0,9.098290944E-1,-2.226151943E0,3.057054219E0
7.919101708E0,-2.209832949E0,2.303839805E0,-2.232338297E0,3.895429858E0
7.929120708E0,-1.857011372E0,3.588143300E0,-1.411231345E0,4.279583799E0
7.939139708E0,-1.535139399E0,4.275748964E0,-4.628538601E-1,4.566499302E0
7.949159708E0,-1.187510734E0,5.180898532E0,8.116520047E-2,5.315870496E0
7.959178708E0,-9.944143313E-1,5.786059624E0,2.919409525E-1,5.878143870E0
7.969197708E0,-1.074900085E0,6.396351063E0,2.906113322E-1,6.492547425E0
7.979216708E0,-1.123076172E0,7.954439907E0,4.037069714E-1,8.043469006E0
7.989236708E0,-1.155944541E0,9.187658619E0,8.795030951E-1,9.301763509E0
7.999255708E0,-1.359869987E0,9.866266587E0,1.595643171E0,1.008655243E1
8.009274708E0,-1.732743421E0,1.013033620E1,2.339881457E0,1.054045334E1
8.019293708E0,-2.299812242E0,9.533170592E0,2.474864430E0,1.011412042E1
8.029313708E0,-2.779670719E0,8.702321008E0,2.236207985E0,9.405189333E0
8.039332708E0,-3.058793698E0,7.968403058E0,1.671856949E0,8.697515268E0
8.049351708E0,-3.158566493E0,7.080168900E0,7.441271889E-1,7.788392596E0
8.059370708E0,-3.124579844E0,6.605146948E0,-2.617213726E-1,7.311597875E0
8.069390708E0,-3.147541568E0,7.099961725E0,-7.960153806E-1,7.807055457E0
8.079409708E0,-3.478489296E0,7.760663765E0,-1.442170132E0,8.625986584E0
8.089428708E0,-3.614607506E0,8.942805294E0,-1.296880857E0,9.732474192E0
8.099447708E0,-3.509460828E0,9.988723655E0,-9.754781234E-1,1.063214339E1
8.109467708E0,-3.293659686E0,9.846607078E0,-1.089535154E0,1.043987318E1
8.119486708E0,-2.829285221E0,9.295829185E0,-1.154560286E0,9.785208457E0
8.129505708E0,-2.200724449E0,8.756104867E0,-1.613342108E0,9.171446631E0
8.139524708E0,-1.850670213E0,7.316370100E0,-1.778432980E0,7.753520203E0
8.149544708E0,-1.459603021E0,5.051616594E0,-2.064931344E0,5.649178050E0
8.159563708E0,-6.084872809E-1,2.690880457E0,-1.418567262E0,3.102164967E0
8.169582708E0,4.726190391E-1,-5.186714172E-2,5.444108605E-2,4.785632543E-1
8.179601708E0,1.677984393E0,-3.907474365E0,1.203988407E0,4.419680489E0
8.189621708E0,2.635457331E0,-7.082048196E0,1.322440206E0,7.671368202E0
8.199640708E0,3.281719379E0,-9.072556179E0,5.854037891E-1,9.665591306E0
8.209659708E0,3.710619957E0,-1.076064266E1,-4.501894122E-1,1.139134766E1
8.219678708E0,3.611676297E0,-1.186671951E1,-7.167008970E-1,1.242485001E1
8.229698708E0,3.055889386E0,-1.225995529E1,2.710795489E-1,1.263797641E1
8.239717708E0,2.090429882E0,-1.218811523E1,1.247353625E0,1.242883506E1
8.249736708E0,7.475237634E-1,-1.220363959E1,1.205680519E0,1.228581607E1
8.259755708E0,-3.042130888E-1,-1.272998255E1,7.864142525E-1,1.275787791E1
8.269775708E0,-7.496854059E-1,-1.381851191E1,2.707949357E-1,1.384148220E1
8.279794708E0,-8.468042958E-1,-1.491677104E1,-4.181203580E-1,1.494663709E1
8.289813708E0,-9.223779501E-1,-1.541385337E1,-1.111915153E0,1.548140859E1
8.299833708E0,-1.076363716E0,-1.516774523E1,-1.136796518E0,1.524832320E1
8.309852708E0,-1.100192509E0,-1.425816055E1,-5.816283882E-1,1.431236729E1
8.319871708E0,-1.147455261E0,-1.294928588E1,1.141125065E-1,1.300052615E1
8.329890708E0,-1.127354945E0,-1.151181574E1,5.021868007E-1,1.157778141E1
8.339910708E0,-8.006218902E-1,-9.687761033E0,3.295940246E-1,9.726373500E0
8.349929708E0,-6.500605457E-1,-7.392990260E0,9.944929764E-2,7.422181206E0
8.359948708E0,-8.270409992E-1,-5.267951878E0,7.679230177E-1,5.387487315E0
8.369967708E0,-1.726119695E0,-2.011172628E0,4.000255644E0,4.798577889E0
8.379987708E0,-2.260868032E0,4.846721971E-1,5.536629683E0,6.000058304E0
8.390006708E0,-2.243033440E0,2.455173347E0,5.591563690E0,6.505740517E0
8.400025708E0,-1.940059668E0,3.914344844E0,4.585444987E0,6.333421887E0
8.410044708E0,-1.452363583E0,5.032675123E0,3.124509970E0,6.099159075E0
8.420064708E0,-7.843319859E-1,6.466534023E0,2.025626506E0,6.821612836E0
8.430083708E0,7.823869827E-1,8.450980783E0,4.078772056E-1,8.496915287E0
8.440102708E0,2.758526018E0,9.968473577E0,-4.654411726E0,1.134211090E1
8.450118583E0,2.887925485E0,1.072109326E1,-8.524482622E0,1.399816982E1
8.460138583E0,2.870854247E-1,9.699315131E0,-2.060043656E0,9.919824188E0
8.470157583E0,-1.106178596E0,1.038003804E1,-1.525299120E0,1.054966152E1
8.480176583E0,-2.070806041E0,1.077316272E1,-2.218293870E0,1.119241262E1
8.490195583E0,-2.277565633E0,9.965444720E0,-3.643276697E0,1.085222829E1
8.500215583E0,-2.144066976E0,9.420992929E0,-4.530817667E0,1.067147786E1
8.510234583E0,-2.168913549E0,9.572812375E0,-4.365162832E0,1.074232607E1
8.520253583E0,-2.083804109E0,8.831111196E0,-4.319501925E0,1.004932144E1
8.530272583E0,-1.848599860E0,7.171642157E0,-4.430428283E0,8.630090813E0
8.540292583E0,-1.842769601E0,5.704847646E0,-4.703749362E0,7.620127593E0
8.550311583E0,-1.779214752E0,4.794256659E0,-5.279435810E0,7.350030239E0
8.560330583E0,-2.051367265E0,4.684094532E0,-6.182434187E0,8.023175289E0
8.570349583E0,-1.877515218E0,4.894719425E0,-6.692838811E0,8.501613552E0
8.580369583E0,-1.226531251E0,5.379768183E0,-6.826925406E0,8.777994937E0
8.590388583E0,8.998609073E-2,6.273685834E0,-5.421775750E0,8.292338858E0
8.600407583E0,1.828468481E0,7.002367018E0,-2.408540633E0,7.627418228E0
8.610426583E0,2.657095245E0,6.610719929E0,1.085277724E0,7.206913408E0
8.620446583E0,2.676112729E0,4.931097293E0,2.882287892E0,6.307525929E0
8.630465583E0,2.469375649E0,2.534718869E0,2.457926216E0,4.308598046E0
8.640484583E0,1.987026843E0,4.559307933E-2,7.757430840E-1,2.133572529E0
8.650504583E0,1.163135739E0,-2.548187930E0,-3.032807502E-1,2.817467957E0
8.660523583E0,1.304574331E0,-4.027262764E0,-5.689142025E-1,4.271349075E0
8.670542583E0,2.014848480E0,-4.605197466E0,3.042575276E-1,5.035874377E0
8.680561583E0,1.358910459E-1,-8.081651931E0,1.127630422E0,8.161073133E0
8.690581583E0,-1.779585466E-1,-8.390546885E0,2.290276311E0,8.699328242E0
8.700600583E0,-1.965173167E-1,-9.223007961E0,2.351727916E0,9.520142808E0
8.710619583E0,-9.635743618E-1,-1.112076799E1,2.335349865E0,1.140411396E1
8.720638583E0,-1.106375647E0,-1.118219533E1,5.820172280E0,1.265464203E1
8.730658583E0,1.546830615E0,-1.070832528E1,1.590693737E1,1.923776421E1
8.740677583E0,-5.336016977E-1,-1.054228073E1,9.458884056E0,1.417373985E1
8.750696583E0,-5.632929817E0,-1.038277921E1,3.320768255E0,1.227026912E1
8.760715583E0,-6.971508338E0,-9.895638320E0,1.479527408E0,1.219485907E1
8.770735583E0,-6.631720204E0,-1.049131172E1,2.053343332E-1,1.241327905E1
8.780754583E0,-6.033713765E0,-1.112974698E1,-2.586913820E-1,1.266269682E1
8.790773583E0,-5.814408095E0,-1.044669279E1,-9.800507192E-1,1.199588392E1
8.800792583E0,-5.990470097E0,-9.532736143E0,-1.172885971E0,1.131964893E1
8.810812583E0,-5.925271304E0,-8.640342277E0,-7.398915390E-1,1.050294217E1
8.820831583E0,-5.712466568E0,-7.678244337E0,-7.245758539E-1,9.597537213E0
8.830850583E0,-5.183081882E0,-6.586063390E0,-1.065604840E0,8.448436687E0
8.840870583E0,-4.136173003E0,-4.811600670E0,-1.267941671E0,6.470479441E0
8.850889583E0,-2.448343799E0,-2.641394886E0,-1.078976033E0,3.759726531E0
8.860908583E0,-4.601290941E-2,-1.016116272E0,-6.138103668E-1,1.188012051E0
8.870927583E0,2.237335913E0,5.279363304E-1,-2.224983231E-1,2.309522517E0
8.880947583E0,4.136788130E0,2.210425272E0,-5.325644016E-1,4.720447093E0
8.890966583E0,5.525904720E0,3.546419324E0,-5.842777616E-1,6.591971898E0
8.900985583E0,6.623590236E0,4.987260969E0,-4.195874244E-1,8.301853599E0
8.911004583E0,7.402058707E0,6.370341479E0,-5.743141792E-1,9.782717436E0
8.921024583E0,8.140435159E0,7.419143102E0,-8.223418844E-1,1.104475510E1
8.931043583E0,8.833610880E0,8.551031320E0,-1.124234798E0,1.234571674E1
8.941062583E0,1.217380826E1,8.556182132E0,-1.386149129E0,1.494427214E1
8.951081583E0,1.474185275E1,9.458492292E0,-6.335048854E-1,1.752674036E1
8.961101583E0,1.142368885E1,1.093013590E1,-6.327190197E-1,1.582304873E1
8.971120583E0,9.572520014E0,1.040794329E1,-6.744172686E-1,1.415673909E1
8.981139583E0,9.373177323E0,8.921289879E0,-3.863220298E-1,1.294585304E1
8.991159583E0,8.301738204E0,6.805265565E0,3.030705428E-1,1.073882435E1
9.001178583E0,6.548892640E0,5.122861408E0,2.802897906E-1,8.319270773E0
9.011197583E0,4.967830671E0,4.068718354E0,-1.206611542E0,6.533737218E0
9.021216583E0,3.837195511E0,3.639399408E0,-2.741219137E0,5.956809532E0
9.031236583E0,3.483809093E0,3.225990736E0,-3.444326354E0,5.865775827E0
9.041255583E0,3.953728180E0,2.853980936E0,-3.550426421E0,6.031807480E0
9.051274583E0,4.425076327E0,2.919986646E0,-3.330177594E0,6.260807082E0
9.061293583E0,4.856580961E0,3.379070842E0,-3.226092478E0,6.738855323E0
9.071313583E0,1.016938391E1,4.107985915E0,-2.441247618E0,1.123617405E1
9.081332583E0,6.768654394E0,5.925259025E0,9.458831723E-1,9.045334255E0
9.091351583E0,5.079330057E-1,5.123848418E0,5.927184513E0,7.851326945E0
9.101370583E0,2.563485416E0,4.317145497E0,1.272082669E0,5.179517065E0
9.111390583E0,3.475091479E0,4.871086149E0,1.234551877E0,6.109652969E0
9.121409583E0,6.188102478E-1,2.951118976E0,1.797893683E0,3.510619750E0
9.131428583E0,3.369165659E-2,-1.709983134E-1,8.995379949E-1,9.162664215E-1
9.141447583E0,-2.779187447E-1,-3.728104008E0,1.596510898E0,4.065076306E0
9.151467583E0,-1.993553213E0,-5.857509676E0,1.096606704E0,6.283885762E0
9.161486583E0,-3.065459524E0,-4.059058169E0,5.109273648E-1,5.112146524E0
9.171505583E0,-5.785935078E0,-4.920367652E0,7.390880585E-4,7.595200005E0
9.181525583E0,-1.081910312E1,-6.353436593E0,9.686031134E-1,1.258401132E1
9.191544583E0,-1.456424358E1,-7.213751466E0,3.368420724E0,1.659824266E1
9.201563583E0,-3.456333026E0,-9.246419043E0,3.333463145E0,1.041894811E1
9.211582583E0,-2.115174714E0,-4.974228694E0,1.414021052E0,5.587161239E0
9.221602583E0,-9.803789672E0,-4.875938169E0,2.726740261E0,1.128380155E1
9.231621583E0,-1.013545485E1,-5.337494568E0,3.685252689E0,1.203317833E1
9.241640583E0,-7.474961792E0,-6.258857296E0,2.960932358E0,1.018898763E1
9.251659583E0,-5.993862067E0,-7.140480006E0,2.462172464E0,9.642361248E0
9.261679583E0,-6.040673121E0,-7.062393950E0,2.660738060E0,9.666781630E0
9.271698583E0,-6.630091170E0,-7.358757151E0,2.477168233E0,1.021008218E1
9.281717583E0,-7.555256342E0,-6.900461744E0,2.354159042E0,1.049953977E1
9.291737583E0,-8.369344296E0,-5.833002825E0,2.287069405E0,1.045468949E1
9.301756583E0,-8.033717626E0,-4.720558353E0,2.527992817E0,9.654793511E0
9.311775583E0,-7.460185293E0,-3.327928755E0,2.421059668E0,8.520035465E0
9.321794583E0,-7.444303086E0,-1.775271390E0,1.029940406E0,7.722047279E0
9.331814583E0,-6.564804668E0,-8.487847477E-1,-1.188758969E0,6.725343394E0
9.341833583E0,-4.811186687E0,-2.533423126E-2,-2.436256143E0,5.392912307E0
9.351852583E0,-2.954062464E0,8.947228128E-1,-2.756173975E0,4.138056179E0
9.361871583E0,-6.149896771E-1,1.689609681E0,-2.617159347E0,3.175297817E0
9.371891583E0,1.854115831E0,2.224648624E0,-2.392587090E0,3.756498369E0
9.381910583E0,4.178257753E0,2.656721608E0,-2.228546086E0,5.429772114E0
9.391929583E0,6.513353848E0,2.633284214E0,-1.414716285E0,7.166546328E0
9.401949583E0,8.787831860E0,1.734045596E0,1.063470825E0,9.020192521E0
9.411968583E0,9.469055872E0,1.881425251E0,1.867851525E0,9.833191212E0
9.421987583E0,8.846884060E0,3.113090943E0,4.043633214E-1,9.387342674E0
9.432006583E0,7.960628015E0,4.210368907E0,-1.325653836E0,9.102536065E0
9.442026583E0,6.485406497E0,5.303383666E0,-1.657541211E0,8.540129894E0
9.452048542E0,4.644561507E0,6.958941502E0,-7.322178724E-1,8.398509477E0
9.462067542E0,3.734911337E0,8.912357088E0,3.986251563E-2,9.663397983E0
9.472086542E0,3.665309005E0,9.806976405E0,-8.381764367E-2,1.046987592E1
9.482106542E0,4.068075160E0,9.552226083E0,-1.362347453E0,1.047140149E1
9.492125542E0,4.554084615E0,8.260039955E0,-2.767452085E0,9.829890019E0
9.502144542E0,4.550346490E0,6.855397253E0,-2.953206724E0,8.742056659E0
9.512163542E0,3.968505263E0,5.907424432E0,-2.133731145E0,7.429637006E0
9.522183542E0,3.125334427E0,5.082103391E0,-1.261465002E0,6.098096762E0
9.532202542E0,2.438419320E0,4.359348360E0,-8.322635861E-1,5.063839411E0
9.542221542E0,1.714142259E0,4.032029414E0,-9.527206139E-1,4.483661612E0
9.552241542E0,7.799852389E-1,4.576571252E0,-6.913565062E-1,4.693757047E0
9.562260542E0,7.664354861E-1,5.319272890E0,-1.180330646E-1,5.375501766E0
9.572279542E0,1.937339836E0,4.969929821E0,-6.577825248E-2,5.334586661E0
9.582298542E0,3.756829332E0,3.981902989E0,-1.634685030E0,5.713275172E0
9.592318542E0,5.141021690E0,3.015935946E0,-3.740129392E0,7.036656985E0
9.602337542E0,5.468174576E0,2.078549509E0,-5.109902224E0,7.767393513E0
9.612356542E0,4.825457110E0,5.010941023E-1,-4.988376617E0,6.958450466E0
9.622375542E0,3.520012713E0,-1.545500373E0,-3.853033279E0,5.442878499E0
9.632395542E0,1.348053642E0,-4.019104729E0,-2.028240212E0,4.699383981E0
9.642414542E0,-1.125212452E0,-6.751691036E0,-1.351006632E0,6.976865616E0
9.652433542E0,-3.440419244E0,-9.165574270E0,-5.947284901E-1,9.808054764E0
9.662453542E0,-4.875781463E0,-1.090417543E1,1.937612901E0,1.210076983E1
9.672472542E0,-5.048578380E0,-1.181791982E1,5.366512545E0,1.392662305E1
9.682491542E0,-4.023809398E0,-1.175587502E1,6.988151852E0,1.425573238E1
9.692510542E0,-2.625323814E0,-1.092861796E1,6.634943774E0,1.305180043E1
9.702530542E0,-1.527453234E0,-9.486928471E0,5.375176365E0,1.101033361E1
9.712549542E0,-1.575866426E0,-7.696054956E0,4.565890728E0,9.086251978E0
9.722568542E0,-2.963483790E0,-6.304362667E0,4.317772903E0,8.195754245E0
9.732587542E0,-5.057486613E0,-6.192862696E0,3.421973033E0,8.697104038E0
9.742607542E0,-5.906815152E0,-7.006343710E0,2.863484416E0,9.600982263E0
9.752626542E0,-4.551937810E0,-8.527462363E0,2.677083367E0,1.003018083E1
9.762645542E0,-2.500203047E0,-1.004840852E1,2.533069954E0,1.066011128E1
9.772665542E0,-1.400590582E0,-1.013459765E1,2.445435979E0,1.051911977E1
9.782684542E0,-7.519858468E-1,-8.796230800E0,2.576037633E0,9.196473721E0
9.792703542E0,2.513241461E-1,-6.739458076E0,1.672415212E0,6.948412166E0
9.802722542E0,1.258239240E0,-3.835569985E0,9.772347732E-1,4.153281943E0
9.812742542E0,2.035549378E0,-2.949645478E-1,1.092460443E0,2.328934343E0
9.822761542E0,3.505512788E0,3.629121757E0,-2.300075367E-2,5.045757987E0
9.832780542E0,5.134427785E0,5.910695949E0,-1.315893663E0,7.939159365E0
9.842799542E0,5.870558907E0,6.555891758E0,-2.279722379E0,9.090671743E0
9.852819542E0,5.182532828E0,6.419728231E0,-3.040614412E0,8.793002507E0
9.862838542E0,3.451056499E0,6.323000082E0,-2.687350493E0,7.688431158E0
9.872857542E0,3.785290801E-1,5.560725474E0,-3.855866840E0,6.777363879E0
9.882877542E0,-3.598882881E0,5.412817231E0,-4.689916312E0,8.015351732E0
9.892896542E0,-4.865388038E0,3.695263706E0,-4.440021225E0,7.552533555E0
9.902915542E0,-3.211542267E0,2.444109246E0,-3.772628801E0,5.524527293E0
9.912934542E0,-1.055506698E0,2.372325903E0,-3.278255197E0,4.181982988E0
9.922954542E0,6.962094759E-1,2.687392593E0,-3.510649274E0,4.475650222E0
9.932973542E0,1.200907875E0,3.713436853E0,-3.013733300E0,4.930961507E0
9.942992542E0,9.897236949E-1,5.519219014E0,-2.949396679E0,6.335635113E0
9.953011542E0,1.086622583E0,7.727647462E0,-2.791918589E0,8.288069338E0
9.963031542E0,2.058581560E0,1.061008504E1,-3.121738682E0,1.124975178E1
9.973050542E0,3.582929338E0,1.343441533E1,-2.176714612E0,1.407334305E1
9.983069542E0,5.856082955E-1,1.184627882E1,-1.132118014E0,1.191465275E1
9.993088542E0,-8.369762957E-1,1.026656580E1,-1.317710393E0,1.038456852E1
1.000310854E1,-6.083931407E-1,7.853139820E0,-2.112597846E0,8.155060815E0
1.001312754E1,-6.600465667E-1,3.498960398E0,-1.122081853E0,3.733289839E0
1.002314654E1,-1.632986999E0,-7.665477526E-1,-6.850714803E-2,1.805252122E0
1.003316654E1,-1.977085699E0,-2.967804590E0,-4.715077758E0,5.911741724E0
1.004318554E1,-2.643905096E0,-3.554561571E0,-5.945867536E0,7.414747661E0
1.005320454E1,-3.228966677E0,-3.946278827E0,-3.395996193E0,6.126347405E0
1.006322354E1,-3.202582578E0,-2.772833862E0,-6.043086852E0,7.379975711E0
1.007324354E1,-3.780327246E0,1.554280552E0,-2.905039408E0,5.014570379E0
1.008326254E1,-3.846840201E0,3.966467509E0,-6.608087513E-1,5.564864080E0
1.009328154E1,-3.214764375E0,5.110482852E0,-8.908686206E-1,6.102900283E0
1.010330154E1,-8.069540593E-1,5.969356971E0,4.060540438E-2,6.023790028E0
1.011332054E1,3.446175828E0,3.935976618E0,2.667991531E0,5.872496793E0
1.012333954E1,6.198007076E0,-6.163608491E-2,4.655760679E0,7.752109276E0
1.013335854E1,5.110109800E0,-2.653845947E0,4.747038346E0,7.462606350E0
1.014337854E1,1.516115191E0,-5.235837216E0,3.502012644E0,6.478941980E0
1.015339754E1,-2.014885610E0,-9.296277666E0,1.963767496E0,9.712719766E0
1.016341654E1,-4.089951640E0,-1.239121242E1,5.477886508E-1,1.306024204E1
1.017343554E1,-4.464785938E0,-1.369672844E1,-8.217399135E-2,1.440629849E1
1.018345554E1,-3.592967546E0,-1.399177661E1,3.872644548E-1,1.445092392E1
1.019347454E1,-1.404849694E0,-1.337033219E1,8.052855563E-1,1.346803142E1
1.020349354E1,1.203099704E0,-1.248364403E1,1.933340925E0,1.268962665E1
1.021351254E1,2.308411742E0,-1.144529080E1,3.934898391E0,1.232099313E1
1.022353254E1,1.845190933E0,-8.946935182E0,4.511982324E0,1.018873708E1
1.023355154E1,7.339580769E-1,-5.679739117E0,4.049222567E0,7.013867285E0
1.024357054E1,1.996108592E-1,-3.240424588E0,2.582070791E0,4.148166532E0
1.025359054E1,1.801430663E-1,-1.856890334E0,1.995785680E0,2.731968836E0
1.026360954E1,-1.866211966E-2,-9.913047820E-1,2.212222706E0,2.424244779E0
1.027362854E1,-7.025031996E-1,-8.455717027E-2,1.296334727E0,1.476869793E0
1.028364754E1,-1.038298854E0,7.195022249E-1,2.129602718E-1,1.281054269E0
1.029366754E1,-1.128237363E0,8.117736268E-1,-5.116417484E-1,1.481105414E0
1.030368654E1,-9.406392431E-1,1.599690614E0,-1.077450933E0,2.145859445E0
1.031370554E1,-1.718745041E0,1.804317434E0,3.419035392E0,4.230774034E0
1.032372554E1,-1.078043110E0,1.156272862E0,3.017483704E0,3.406516077E0
1.033374454E1,-6.697147916E-1,1.744236124E-1,1.498829798E0,1.650888325E0
1.034376354E1,-1.214934176E0,6.953216493E-1,1.553081288E0,2.090836851E0
1.035378254E1,-1.750487967E0,1.664859002E0,1.687050354E0,2.946540771E0
1.036380254E1,-1.939756051E0,2.440748851E0,1.009887964E0,3.277160691E0
1.037382154E1,-1.569421771E0,3.515295179E0,-1.005355641E-2,3.849738429E0
1.038384054E1,-1.029739700E0,4.786266439E0,-1.273394930E-1,4.897440722E0
1.039385954E1,-8.144401033E-1,5.717978153E0,-3.073438342E-1,5.783860914E0
1.040387954E1,-6.018903060E-1,7.314394326E0,-1.542680115E0,7.499499866E0
1.041389854E1,-9.509344357E-1,9.412171234E0,-2.749441491E0,9.851531463E0
1.042391754E1,-6.555409947E-1,1.249072384E1,-4.258031316E0,1.321282509E1
1.043393754E1,-1.853605515E0,1.357875385E1,-1.486688201E-1,1.370549204E1
1.044395654E1,-4.108011935E0,9.482367058E0,6.851984818E0,1.239922349E1
1.045397604E1,-8.372574006E-1,8.077089933E0,1.734613799E0,8.303569520E0
1.046399504E1,1.918357435E0,6.855981975E0,-9.734443156E-1,7.185553418E0
1.047401504E1,1.485352989E0,5.688988827E0,3.198181379E-1,5.888391208E0
1.048403404E1,3.939313770E-1,4.971008633E0,1.572624876E0,5.228695608E0
1.049405304E1,-7.166503186E-1,3.193186103E0,1.616247736E0,3.649970124E0
1.050407204E1,-1.357461227E0,1.843784970E0,9.320719028E-1,2.472044100E0
1.051409204E1,-1.768874244E0,9.225304163E-1,8.981497197E-1,2.187841717E0
1.052411104E1,-1.019567591E0,2.946428339E0,1.220791917E-1,3.120234184E0
1.053413004E1,2.368829852E-1,2.236219094E0,-3.227653685E0,3.933768892E0
1.054415004E1,7.104785094E-1,1.756450957E-1,-2.002248023E0,2.131813326E0
1.055416904E1,5.505056692E-1,-4.044700330E-1,-2.389769462E-1,7.237143638E-1
1.056418804E1,2.908072140E-1,-2.209302022E0,-7.002485132E-1,2.335793707E0
1.057420704E1,1.329169328E-1,-3.774425651E0,-1.646201706E0,4.119943684E0
1.058422704E1,1.071733599E0,-5.302400749E0,-4.971723747E-1,5.432425516E0
1.059424604E1,2.211549984E0,-8.358764344E0,8.167156935E-1,8.684867254E0
1.060426504E1,1.534673230E0,-9.285835708E0,1.769146432E0,9.576630191E0
1.061428504E1,1.350895388E-1,-9.878584331E0,4.353603471E0,1.079622808E1
1.062430404E1,-2.120570232E-1,-1.023132463E1,4.158467267E0,1.104616775E1
1.063432304E1,-1.374852893E-1,-1.005230394E1,2.640393258E0,1.039419998E1
1.064434204E1,-4.395898721E-1,-9.171678178E0,1.026026133E0,9.239353305E0
1.065436204E1,-8.118759531E-1,-9.068982945E0,1.800185791E0,9.281501123E0
1.066438104E1,-1.357725521E0,-9.325616655E0,2.450014933E0,9.737202769E0
1.067440004E1,-1.905932686E0,-9.506659316E0,2.686686834E0,1.006118467E1
1.068441904E1,-1.700881358E0,-9.552928333E0,2.368618183E0,9.988082360E0
1.069443904E1,-1.277496460E0,-9.073567747E0,1.491172138E0,9.283599690E0
1.070445804E1,-1.015148850E0,-8.150866592E0,5.268224359E-1,8.230716571E0
1.071447704E1,-8.892175131E-1,-6.908696963E0,-5.456704239E-1,6.987027817E0
1.072449704E1,-7.793376598E-1,-5.706915806E0,-1.463017795E0,5.942783546E0
1.073451604E1,-7.740511921E-1,-4.452990350E0,-1.673445053E0,4.819615819E0
1.074453504E1,-8.388362950E-1,-3.270783917E0,-1.473615289E0,3.684184547E0
1.075455404E1,-9.113063934E-1,-2.353304325E0,-1.223306365E0,2.804460564E0
1.076457404E1,-1.095897729E0,-1.706204079E0,3.894713402E-2,2.028211298E0
1.077459304E1,-9.484973162E-1,-5.806238365E-1,8.577163696E-1,1.404438881E0
1.078461204E1,-5.089146070E-1,6.383756161E-1,3.926275941E-1,9.059105541E-1
1.079463104E1,-2.933518857E-1,1.212575701E0,-2.108131742E-1,1.265242014E0
1.080465104E1,-1.566889342E-1,1.897961177E0,-8.262571800E-1,2.075935688E0
1.081467004E1,3.388225389E-1,2.739653252E0,-1.098594757E0,2.971095942E0
1.082468904E1,8.187052086E-1,2.958566574E0,-1.071673007E0,3.251442361E0
1.083470904E1,1.146461234E0,3.058981394E0,-8.818443203E-1,3.383694716E0
1.084472804E1,1.212159745E0,3.131458801E0,-1.233350859E0,3.577222360E0
1.085474704E1,9.064997629E-1,3.180581260E0,-2.343400311E0,4.053315185E0
1.086476604E1,4.170365766E-1,3.681340317E0,-3.903846753E0,5.382026152E0
1.087478604E1,-3.995517938E-1,4.683462448E0,-3.356297107E0,5.775741719E0
1.088480504E1,5.097682274E-1,7.520784082E0,5.833668823E0,9.531723285E0
1.089482404E1,1.088686285E0,7.748814383E0,7.911167003E0,1.112726047E1
1.090484404E1,-4.232091167E-1,4.946256199E0,-1.888293391E0,5.311328297E0
1.091486304E1,-7.923710304E-1,6.708247978E0,-4.346714866E0,8.032581958E0
1.092488204E1,7.554155311E-1,1.106170644E1,-2.026684121E0,1.127117787E1
1.093490104E1,1.917148231E0,1.127312071E1,-2.142911712E0,1.163403534E1
1.094492104E1,1.784684092E0,9.783717350E0,-4.551947165E0,1.093738751E1
1.095494004E1,1.493701936E0,9.682068769E0,-5.361814892E0,1.116792998E1
1.096495904E1,1.142315558E0,9.315351868E0,-5.305245420E0,1.078082994E1
1.097497804E1,-1.113633723E0,9.863003840E0,-2.456618779E0,1.022516507E1
1.098499804E1,-2.025687171E0,1.210757568E1,-1.076178871E0,1.232294439E1
1.099501704E1,-7.266542467E-1,1.266133156E1,2.526804078E-1,1.268468331E1
1.100503604E1,-3.691013950E-1,1.177205426E1,6.195183456E-2,1.177800218E1
1.101505604E1,9.985494822E-1,1.126249164E1,-3.219862854E-1,1.131125520E1
1.102507504E1,1.323166138E0,9.928072826E0,-1.872852941E-1,1.001760822E1
1.103509404E1,-2.993598998E-2,7.750129421E0,-4.317174733E-2,7.750307478E0
1.104511304E1,-8.005168596E-1,5.813281921E0,-2.071598339E-1,5.871796074E0
1.105513304E1,-1.451601399E0,3.230603020E0,-4.216275910E-1,3.566750947E0
1.106515204E1,-1.504892045E0,7.719850785E-1,1.547266086E-1,1.698411420E0
1.107517104E1,-1.198572643E0,-1.905766041E0,1.122131920E0,2.515492125E0
1.108519004E1,-5.948262848E-1,-5.500268188E0,2.658052727E0,6.137753070E0
1.109521004E1,4.470020950E-2,-1.419721385E1,2.069055034E1,2.509306184E1
1.110522904E1,1.309010906E0,-1.548281660E1,-8.707346106E-1,1.556243227E1
1.111524804E1,4.542948593E0,-2.289393790E1,-2.221588045E0,2.344581473E1
1.112526804E1,5.708958823E0,-2.857493593E1,1.208941803E0,2.916471694E1
1.113528704E1,3.671602948E0,-2.172933159E1,9.618329148E-1,2.205832365E1
1.114530604E1,1.405653686E0,-1.465156940E1,5.638654826E0,1.576194076E1
1.115532504E1,4.290023187E-1,-1.109246279E1,6.364632257E0,1.279591019E1
1.116534504E1,-6.502592048E-1,-1.004648011E1,4.786319064E0,1.114735170E1
1.117536404E1,-2.047761872E0,-9.514340218E0,3.313472099E0,1.028081202E1
1.118538304E1,-2.416710362E0,-7.939390928E0,2.378636218E0,8.633210732E0
1.119540304E1,-2.208941541E0,-6.924654599E0,1.206966906E0,7.367973477E0
1.120542204E1,-2.802768683E0,-7.068928798E0,2.525481145E-1,7.608485210E0
1.121544104E1,-3.538029739E0,-7.073448696E0,4.038765407E-1,7.919245364E0
1.122546004E1,-4.303428513E0,-6.423083948E0,1.741986115E0,7.925277282E0
1.123548004E1,-4.086241289E0,-5.113943819E0,2.167793807E0,6.895586941E0
1.124549904E1,-3.075592164E0,-4.108450184E0,1.275678268E0,5.288287541E0
1.125551804E1,-2.227402224E0,-3.283195801E0,1.167248963E0,4.135597355E0
1.126553704E1,-1.413542165E0,-2.302557510E0,9.413536267E-1,2.861122016E0
1.127555704E1,-6.824539011E-1,-1.767780522E0,3.261480412E-1,1.922801042E0
1.128557604E1,-9.568327414E-1,-2.450287414E0,-4.267778917E-1,2.664878360E0
1.129559504E1,-1.284328347E0,-9.973747766E-1,-3.187318714E-1,1.657059369E0
1.130561504E1,-9.884001777E-1,8.658030689E-1,-1.213729942E-1,1.319576170E0
1.131563404E1,-7.232137451E-1,2.366747659E0,-2.035836768E-1,2.483138924E0
1.132565304E1,-4.790386972E-1,3.759276685E0,-4.871438152E-1,3.820857019E0
1.133567204E1,-2.489522231E-1,5.103577291E0,-8.710374963E-1,5.183356508E0
1.134569204E1,-5.634901425E-2,6.444530366E0,-1.315759323E0,6.577717647E0
1.135571104E1,2.136098975E-1,7.833355765E0,-1.706214604E0,8.019866583E0
1.136573004E1,4.506820402E-1,9.334024951E0,-1.985043321E0,9.553404267E0
1.137574904E1,5.532699770E-1,1.072218435E1,-2.205890318E0,1.096071608E1
1.138576904E1,5.460208914E-1,1.215167304E1,-2.457820966E0,1.240976150E1
1.139578804E1,4.201171821E-1,1.367028967E1,-2.557915943E0,1.391388703E1
1.140580704E1,2.421098113E-1,1.514634793E1,-2.498292469E0,1.535291301E1
1.141582704E1,9.967719287E-2,1.640976517E1,-2.008344183E0,1.653250661E1
1.142584604E1,3.933714330E-3,1.737655316E1,-1.280556015E0,1.742367467E1
1.143586504E1,4.028263350E-2,1.775842195E1,-6.733771221E-1,1.777122983E1
1.144588083E1,1.887229782E-1,1.748188023E1,-2.294038300E-1,1.748440387E1
1.145590083E1,3.609322500E-1,1.664269602E1,-1.559721386E-1,1.664734004E1
1.146591983E1,5.337040240E-1,1.531671825E1,-6.195978677E-1,1.533853316E1
1.147593883E1,6.900980392E-1,1.371219784E1,-1.486366897E0,1.380977521E1
1.148595883E1,7.077665707E-1,1.202933409E1,-2.345764925E0,1.227633599E1
1.149597783E1,6.158354768E-1,1.020833806E1,-2.899199209E0,1.062990006E1
1.150599683E1,4.713624725E-1,8.254830086E0,-3.057640042E0,8.815529761E0
1.151601583E1,2.458680909E-1,6.078513377E0,-2.991356006E0,6.779158263E0
1.152603583E1,9.948365003E-2,3.549602548E0,-2.869416416E0,4.565427232E0
1.153605483E1,1.512613111E-1,6.414600223E-1,-2.453410996E0,2.540389037E0
1.154607383E1,3.757166424E-1,-2.792817307E0,-1.419090149E0,3.155124142E0
1.155609283E1,7.017041776E-1,-7.495417691E0,3.402832465E-1,7.535878701E0
1.156611283E1,-5.266306472E-1,-1.798003493E1,1.288119623E1,2.212429010E1
1.157613183E1,-9.292658240E0,-4.105049911E1,3.381913525E1,5.399287808E1
1.158615083E1,-1.579086780E0,-2.544356250E1,-2.727347202E1,3.733243447E1
1.159617083E1,3.157858395E0,-2.969711952E1,-1.057372764E0,2.988325643E1
1.160618983E1,2.648117138E0,-1.751137943E1,4.041906823E0,1.816584555E1
1.161620883E1,2.895793498E0,-1.055906107E1,8.173621032E0,1.366336238E1
1.162622783E1,3.052069400E0,-8.776789393E0,7.952563536E0,1.223071651E1
1.163624783E1,2.231591316E0,-7.797603550E0,3.661299570E0,8.898749095E0
1.164626683E1,1.361722678E0,-7.507526105E0,9.310046397E-1,7.686612161E0
1.165628583E1,9.502935809E-1,-7.613785801E0,1.851681781E0,7.893131035E0
1.166630583E1,4.186711657E-1,-8.156154814E0,4.866220681E0,9.506747636E0
1.167632483E1,7.126741388E-1,-8.553169647E0,1.913305879E0,8.793483657E0
1.168634383E1,1.092888752E0,-8.745369964E0,9.715195584E-1,8.866777988E0
1.169636283E1,1.353033130E0,-8.138178134E0,1.622741800E0,8.407968419E0
1.170638283E1,1.754978336E0,-6.884220518E0,1.177733605E0,7.201353869E0
1.171640183E1,1.879293064E0,-5.455871449E0,9.214434189E-1,5.843571995E0
1.172642083E1,1.581928234E0,-4.069885458E0,7.515411660E-1,4.430719885E0
1.173643983E1,1.143509852E0,-3.121492807E0,4.263707793E-1,3.351585321E0
1.174645983E1,7.561183664E-1,-2.188851385E0,1.469873071E-1,2.320428977E0
1.175647883E1,4.847166359E-1,-1.354908625E0,-4.552267885E-1,1.509290902E0
1.176649783E1,3.293932459E-1,2.527634382E-1,-1.337574262E0,1.400533531E0
1.177651783E1,2.917295757E-1,1.647097499E0,-1.435062842E0,2.203960453E0
1.178653683E1,1.774249882E-1,2.962534495E0,-1.392701519E0,3.278369683E0
1.179655583E1,7.335332036E-3,4.374624796E0,-1.175510786E0,4.529814734E0
1.180657483E1,-2.255955201E-1,5.739515787E0,-1.055674879E0,5.840152760E0
1.181659483E1,-4.801236480E-1,7.058033096E0,-1.219887060E0,7.178751587E0
1.182661383E1,-8.129901400E-1,8.360013894E0,-1.404640363E0,8.516090643E0
1.183663283E1,-1.118990430E0,9.644303942E0,-1.417760346E0,9.811971387E0
1.184665283E1,-1.371369706E0,1.086791334E1,-1.301127105E0,1.103109818E1
1.185667183E1,-1.509337099E0,1.191908835E1,-1.237631021E0,1.207785147E1
1.186669083E1,-1.429431096E0,1.275460284E1,-1.298969482E0,1.290001894E1
1.187670983E1,-1.144940958E0,1.343394873E1,-1.424507448E0,1.355769485E1
1.188672983E1,-7.956130922E-1,1.398479854E1,-1.522224362E0,1.408988138E1
1.189674883E1,-4.621417058E-1,1.429742694E1,-1.330282491E0,1.436661559E1
1.190676783E1,-2.457248524E-1,1.442018339E1,-9.473167634E-1,1.445335527E1
1.191678683E1,-7.798577696E-2,1.439106893E1,-6.826694441E-1,1.440746280E1
1.192680683E1,3.271781196E-2,1.406449726E1,-6.122737185E-1,1.407785611E1
1.193682583E1,9.663457593E-2,1.339335151E1,-6.872021326E-1,1.341131797E1
1.194684483E1,1.599637404E-1,1.241400487E1,-7.651982152E-1,1.243859452E1
1.195686483E1,2.414590162E-1,1.131790453E1,-6.321892619E-1,1.133811839E1
1.196688383E1,2.488654102E-1,9.906752708E0,-6.012013944E-1,9.928097820E0
1.197690283E1,2.206186991E-1,8.177818748E0,-6.356987607E-1,8.205455807E0
1.198692183E1,2.749723327E-1,6.296211648E0,-5.739697051E-1,6.328296147E0
1.199694183E1,4.700383705E-1,4.115677342E0,-3.548651791E-1,4.157603318E0
1.200696083E1,8.271871796E-1,1.665477052E0,9.040146232E-2,1.861780026E0
1.201697983E1,1.304236069E0,-1.083005496E0,6.816333175E-1,1.827171751E0
1.202699983E1,1.952980553E0,-4.442904487E0,1.387363011E0,5.047604327E0
1.203701883E1,2.544457991E0,-9.111609732E0,2.882802739E0,9.889704243E0
1.204703783E1,-9.344400251E-1,-2.053673583E1,2.450465169E1,3.198606964E1
1.205705683E1,-3.400051529E0,-3.003500673E1,1.252958210E1,3.272082528E1
1.206707683E1,1.520072879E0,-2.026722362E1,-1.532999026E1,2.545740710E1
1.207709583E1,1.072262991E0,-2.001894617E1,8.688405220E0,2.184940134E1
1.208711483E1,1.194674451E0,-1.265794719E1,5.030594684E0,1.367324969E1
1.209713483E1,4.059575647E-1,-9.357746521E0,7.313571038E0,1.188362499E1
1.210715383E1,-3.496652136E-1,-7.311713378E0,5.795415169E0,9.336501232E0
1.211717283E1,-9.137049213E-1,-6.497114961E0,2.927253565E0,7.184439640E0
1.212719183E1,-2.040509278E0,-7.863826191E0,6.866886739E-1,8.153219107E0
1.213721183E1,-3.162341455E0,-9.176588085E0,-3.877594216E-1,9.713934822E0
1.214723083E1,-4.223020235E0,-9.730294265E0,-5.715970512E-1,1.062258206E1
1.215724983E1,-4.653367413E0,-9.497726524E0,-2.383351412E-1,1.057910398E1
1.216726883E1,-4.256108167E0,-8.651185938E0,1.184195656E-1,9.642172891E0
1.217728883E1,-3.470693496E0,-7.467353395E0,4.831957752E-1,8.248670088E0
1.218730783E1,-2.583875241E0,-6.235388911E0,8.334597802E-1,6.800819167E0
1.219732683E1,-1.818909160E0,-5.014398481E0,1.132893209E0,5.453078918E0
1.220734683E1,-1.150874420E0,-3.812512075E0,1.306815276E0,4.191363312E0
1.221736583E1,-4.021767185E-1,-2.375911415E0,1.350541778E0,2.762365700E0
1.222738483E1,7.971658934E-2,-1.614498687E0,7.950153606E-1,1.801391176E0
1.223740383E1,1.261712193E-1,-8.823770016E-1,4.074790102E-1,9.800752488E-1
1.224742383E1,2.176140708E-1,4.805177504E-1,4.178303361E-1,6.729304437E-1
1.225744283E1,2.180274689E-1,1.784129922E0,2.892148344E-1,1.820522116E0
1.226746183E1,1.669181263E-1,3.161576639E0,-1.224991679E-2,3.166003564E0
1.227748183E1,9.866708636E-2,4.530637280E0,-2.853284825E-1,4.540685158E0
1.228750083E1,5.808448613E-2,5.897816287E0,-4.867573142E-1,5.918153720E0
1.229751983E1,7.728557289E-3,7.261209807E0,-6.701868081E-1,7.292076381E0
1.230753883E1,-1.065597494E-2,8.648136030E0,-9.474876483E-1,8.699890987E0
1.231755883E1,9.229215950E-2,1.008269543E1,-1.283207728E0,1.016444229E1
1.232757783E1,1.108950578E-1,1.150944879E1,-1.456278879E0,1.160174372E1
1.233759683E1,-2.252259761E-2,1.287604951E1,-1.578533049E0,1.297246795E1
1.234761683E1,-1.460961914E-1,1.389532795E1,-2.048190765E0,1.404622969E1
1.235763583E1,-3.936959535E-1,1.467272931E1,-1.567039762E0,1.476142254E1
1.236765483E1,-6.852214614E-1,1.526569545E1,-7.567150748E-1,1.529979097E1
1.237767383E1,-8.847916093E-1,1.557929566E1,-2.561911491E-1,1.560650324E1
1.238769383E1,-8.358723414E-1,1.549801936E1,-5.547546216E-1,1.553045522E1
1.239771283E1,-6.310812145E-1,1.498662889E1,-1.262487534E0,1.505294602E1
1.240773183E1,-4.359666449E-1,1.412312378E1,-2.112363957E0,1.428687418E1
1.241775083E1,-2.778076476E-1,1.299207581E1,-2.719316052E0,1.327651651E1
1.242777083E1,-1.223977187E-1,1.169148431E1,-2.821734127E0,1.202779988E1
1.243778983E1,5.134878606E-2,1.028900741E1,-2.479131144E0,1.058359114E1
1.244780804E1,2.591409963E-1,8.731182865E0,-2.089173900E0,8.981389417E0
1.245782804E1,3.754959100E-1,7.047542607E0,-1.695142901E0,7.258261736E0
1.246784704E1,3.368867451E-1,5.258085287E0,-1.413096022E0,5.455070479E0
1.247786604E1,2.220687537E-1,3.288827839E0,-1.240969781E0,3.522173915E0
1.248788504E1,1.519837528E-1,1.039970573E0,-1.051873165E0,1.486968396E0
1.249790504E1,1.832140240E-1,-1.635781968E0,-4.932627802E-1,1.718330060E0
1.250792404E1,2.487279823E-1,-5.129402688E0,5.270585172E-1,5.162405275E0
1.251794304E1,-9.532510112E-2,-1.088226241E1,4.760040507E0,1.187816095E1
1.252796304E1,-6.162587568E0,-2.526159948E1,2.856854375E1,3.863013831E1
1.253798204E1,-4.386955697E0,-2.248160395E1,-1.042061304E1,2.516459959E1
1.254800104E1,-3.977664927E-1,-2.724095917E1,-3.526255785E0,2.747112219E1
1.255802004E1,1.038527480E0,-2.436519326E1,3.900571727E0,2.469728004E1
1.256804004E1,2.690341929E0,-1.273803300E1,4.008646399E0,1.362221239E1
1.257805904E1,3.336645784E0,-9.606282422E0,6.121196882E0,1.186941104E1
1.258807804E1,3.093227366E0,-8.375400842E0,4.253079309E0,9.889594452E0
1.259809704E1,2.796550169E0,-8.011602872E0,3.311583449E0,9.108954845E0
1.260811704E1,2.539214208E0,-8.035453080E0,4.288014668E0,9.455325737E0
1.261813604E1,2.494834134E0,-8.090668337E0,4.220244269E0,9.460104291E0
1.262815504E1,2.687148179E0,-8.150695853E0,2.960890258E0,9.078627614E0
1.263817504E1,2.598926267E0,-8.144054001E0,3.324080118E0,9.172215760E0
1.264819404E1,2.282052787E0,-7.725643036E0,3.270731292E0,8.694308968E0
1.265821304E1,1.794340622E0,-6.786168559E0,2.497389659E0,7.450415900E0
1.266823204E1,1.307600850E0,-5.722868764E0,2.053023051E0,6.218999158E0
1.267825204E1,8.526979968E-1,-4.682828025E0,1.627510789E0,5.030384036E0
1.268827104E1,4.476037735E-1,-3.725130115E0,1.042461779E0,3.894055735E0
1.269829004E1,2.017710217E-1,-2.757321784E0,3.368560472E-1,2.785140385E0
1.270831004E1,-6.352765918E-2,-2.169218774E0,-2.301926011E-1,2.182323185E0
1.271832904E1,-3.253405407E-1,-7.659326255E-1,-9.358294697E-1,1.252308289E0
1.272834804E1,-3.916918203E-1,6.568194884E-1,-1.388820868E0,1.585451899E0
1.273836704E1,-4.535459698E-1,1.989826198E0,-1.610923992E0,2.600036221E0
1.274838704E1,-6.073429808E-1,3.474965179E0,-1.670727267E0,3.903277865E0
1.275840604E1,-8.311907682E-1,4.995391522E0,-1.600647657E0,5.311015672E0
1.276842504E1,-1.060134112E0,6.487780466E0,-1.473424670E0,6.736925112E0
1.277844504E1,-1.222273893E0,7.872747288E0,-1.350886910E0,8.080779589E0
1.278846404E1,-1.333705159E0,9.108098479E0,-1.144793681E0,9.276140357E0
1.279848304E1,-1.323269926E0,1.014297905E1,-8.961740917E-1,1.026811547E1
1.280850204E1,-1.239851793E0,1.101514974E1,-7.022658026E-1,1.110693178E1
1.281852204E1,-1.040112368E0,1.183089245E1,-5.817640436E-1,1.189076530E1
1.282854104E1,-7.784050289E-1,1.245558909E1,-5.555001050E-1,1.249224537E1
1.283856004E1,-5.127294767E-1,1.302309178E1,-5.906670141E-1,1.304655888E1
1.284858004E1,-2.407748920E-1,1.352479808E1,-4.856697321E-1,1.353565702E1
1.285859904E1,1.409472475E-3,1.386597493E1,-2.528675552E-1,1.386828053E1
1.286861804E1,2.259793898E-1,1.398144809E1,-7.537525099E-2,1.398347735E1
1.287863704E1,4.240497270E-1,1.391142183E1,1.103018761E-2,1.391788767E1
1.288865704E1,6.100306535E-1,1.363905970E1,4.316992007E-2,1.365276347E1
1.289867604E1,8.073908463E-1,1.309722278E1,-1.163315248E-1,1.312260102E1
1.290869504E1,8.603265667E-1,1.231872098E1,-3.969920290E-1,1.235510627E1
1.291871404E1,6.187953374E-1,1.131958034E1,-5.682393607E-1,1.135071376E1
1.292873404E1,2.404240408E-1,1.009865131E1,-5.250460152E-1,1.011514880E1
1.293875304E1,-1.146109908E-1,8.603147553E0,-2.494912998E-1,8.607527485E0
1.294877204E1,-3.660766304E-1,6.784338965E0,-5.576957345E-2,6.794437249E0
1.295879204E1,-4.876700646E-1,4.478290082E0,-2.196565260E-2,4.504818159E0
1.296881104E1,-4.666975638E-1,1.670163596E0,2.487007562E-1,1.751886160E0
1.297883004E1,-2.103518289E-1,-1.577047856E0,3.958038016E-1,1.639508610E0
1.298884904E1,3.814407742E-1,-5.861816735E0,6.713982781E-1,5.912458722E0
1.299886904E1,1.362306814E0,-1.220823082E1,1.984371769E0,1.244325162E1
1.300888804E1,-1.187598443E0,-2.659772100E1,2.301363976E1,3.519199863E1
1.301890704E1,-3.967031180E0,-3.939673812E1,1.015114527E1,4.087647320E1
1.302892704E1,3.414300317E-1,-2.237890346E1,-2.176187953E1,3.121716347E1
1.303894604E1,6.116032256E-1,-1.322644858E1,8.683187749E0,1.583384824E1
1.304896504E1,2.239597323E0,-9.902072597E0,5.393381671E0,1.149588638E1
1.305898404E1,1.604751379E0,-7.940721754E0,6.926017585E0,1.065833048E1
1.306900404E1,1.888873946E-1,-6.451110238E0,5.611671095E0,8.552388802E0
1.307902304E1,-1.014987102E0,-5.670351997E0,3.063412998E0,6.524384246E0
1.308904204E1,-2.085190777E0,-6.090600742E0,1.777328294E0,6.678497873E0
1.309906204E1,-2.993207819E0,-7.297618080E0,1.568492064E0,8.042057575E0
1.310908104E1,-4.036408394E0,-8.619974670E0,2.010422869E0,9.728224717E0
1.311910004E1,-5.165534973E0,-9.319554847E0,4.178009831E0,1.144520075E1
1.312911904E1,-4.631805513E0,-8.105163585E0,3.845971597E0,1.009647446E1
1.313913904E1,-3.017344248E0,-7.065977123E0,2.070086103E0,7.957239188E0
1.314915804E1,-1.500003773E0,-6.165588943E0,2.706781375E0,6.898634919E0
1.315917704E1,-1.441611285E-1,-5.117293105E0,2.517266099E0,5.704743619E0
1.316919704E1,5.823557087E-1,-4.086964005E0,1.776524595E0,4.494268860E0
1.317921604E1,4.584804351E-1,-3.438078604E0,1.057187261E0,3.626049324E0
1.318923504E1,-8.996379822E-2,-3.294583254E0,4.290336013E-1,3.323618831E0
1.319925404E1,-4.277688485E-1,-2.688329317E0,-1.601330173E-1,2.726855934E0
1.320927404E1,-3.912690666E-1,-1.135511153E0,-1.305332422E-1,1.208104296E0
1.321929304E1,-2.468975115E-1,7.799431390E-1,-1.825243449E-1,8.382033272E-1
1.322931204E1,-9.264210622E-2,2.614595928E0,-5.182914944E-1,2.667080894E0
1.323933104E1,2.610811025E-2,4.233125685E0,-7.843531090E-1,4.305257774E0
1.324935104E1,1.257683462E-1,5.780618205E0,-9.117200840E-1,5.853426178E0
1.325937004E1,2.523602727E-1,7.356843942E0,-9.762686670E-1,7.425627180E0
1.326938904E1,2.987552977E-1,8.906029816E0,-1.066148558E0,8.974591609E0
1.327940904E1,2.959895647E-1,1.034685977E1,-1.245870917E0,1.042580027E1
1.328942804E1,2.395428654E-1,1.168017112E1,-1.574598603E0,1.178826276E1
1.329944704E1,2.564354714E-1,1.285123509E1,-1.882301895E0,1.299088384E1
1.330946704E1,3.499014777E-1,1.387379500E1,-2.136629756E0,1.404171661E1
1.331948604E1,4.246400034E-1,1.475762620E1,-2.338422577E0,1.494777811E1
1.332950504E1,4.999807924E-1,1.535873400E1,-2.187245155E0,1.552175030E1
1.333952404E1,5.311335514E-1,1.559608652E1,-1.861751710E0,1.571579260E1
1.334954404E1,4.787071601E-1,1.546428326E1,-1.651958874E0,1.555963321E1
1.335956304E1,3.643215886E-1,1.505305794E1,-1.753349594E0,1.515920573E1
1.336958204E1,2.338366224E-1,1.425601228E1,-2.155321696E0,1.441991600E1
1.337960204E1,1.119516314E-1,1.292512051E1,-2.560116835E0,1.317670185E1
1.338962104E1,7.286476722E-2,1.119500775E1,-2.970529393E0,1.158264014E1
1.339964004E1,2.198606076E-2,9.300374810E0,-3.258462079E0,9.854695841E0
1.340965904E1,-1.983849357E-1,7.309929392E0,-3.113912476E0,7.948010771E0
1.341967904E1,-5.233044586E-1,5.181928811E0,-2.710500205E0,5.871375062E0
1.342969804E1,-6.860959125E-1,2.923524796E0,-2.359385430E0,3.818955936E0
1.343971704E1,-5.407200980E-1,3.085359353E-1,-1.974059912E0,2.069899800E0
1.344973633E1,-1.799165050E-1,-2.721567814E0,-1.371196483E0,3.052782519E0
1.345975633E1,3.385216266E-2,-6.240883539E0,-3.420358032E-1,6.250340936E0
1.346977533E1,-1.190757109E0,-1.196563920E1,9.100604103E0,1.508029904E1
1.347979433E1,-6.513121129E0,-2.043811435E1,2.697514474E1,3.446441206E1
1.348981433E1,-2.716172881E0,-1.995695165E1,-1.094717586E1,2.292374693E1
1.349983333E1,-1.368908906E0,-3.104127044E1,2.297766009E0,3.115628525E1
1.350985233E1,1.411281631E0,-2.263695745E1,1.764338851E-1,2.268159359E1
1.351987133E1,3.473597808E0,-1.207227604E1,4.928694087E0,1.349436015E1
1.352989133E1,3.951886599E0,-8.215484172E0,5.889530783E0,1.085348611E1
1.353991033E1,3.167605703E0,-6.112915471E0,4.679032889E0,8.324350438E0
1.354992933E1,2.270250767E0,-4.980917909E0,3.803130802E0,6.665387135E0
1.355994933E1,1.788956506E0,-4.574941633E0,3.227674150E0,5.877783319E0
1.356996833E1,1.598797452E0,-4.719560818E0,1.818837240E0,5.304580710E0
1.357998733E1,1.465838492E0,-5.194798533E0,1.745326045E0,5.672810351E0
1.359000633E1,1.286759034E0,-5.647692282E0,2.961087894E0,6.505399176E0
1.360002633E1,1.228088365E0,-5.790225765E0,3.559460076E0,6.906856845E0
1.361004533E1,1.190369438E0,-5.621748771E0,3.113828861E0,6.535821970E0
1.362006433E1,1.165103619E0,-5.370251840E0,2.392565162E0,5.993449701E0
1.363008433E1,1.035971662E0,-5.077206933E0,1.753688148E0,5.470529192E0
1.364010333E1,8.545518565E-1,-4.629303782E0,1.239262101E0,4.867903341E0
1.365012233E1,6.128457955E-1,-3.897617714E0,6.986805823E-1,4.006888864E0
1.366014133E1,3.823339364E-1,-2.883916926E0,1.368435574E-1,2.912367119E0
1.367016133E1,1.194138846E-1,-1.779734570E0,-3.768056864E-1,1.823101023E0
1.368018033E1,-8.921531808E-2,-7.784444976E-1,-7.068491426E-1,1.055258698E0
1.369019933E1,-1.429120536E-1,-8.530912220E-2,-6.784609106E-1,6.985776325E-1
1.370021933E1,-4.282351274E-1,7.495884883E-1,-5.761796603E-1,1.037907138E0
1.371023833E1,-8.064541955E-1,2.232662233E0,-1.131495578E0,2.629720757E0
1.372025733E1,-9.386003190E-1,3.615825773E0,-1.462944120E0,4.011903798E0
1.373027633E1,-1.048185326E0,4.869274097E0,-1.584153392E0,5.226668603E0
1.374029633E1,-1.207236024E0,6.137452726E0,-1.534354411E0,6.440495963E0
1.375031533E1,-1.340061375E0,7.372141428E0,-1.427213539E0,7.627658370E0
1.376033433E1,-1.497717512E0,8.645781941E0,-1.340085641E0,8.876290478E0
1.377035433E1,-1.573873695E0,9.851319934E0,-1.295775733E0,1.006005058E1
1.378037333E1,-1.396753347E0,1.086448453E1,-1.531555349E0,1.106045233E1
1.379039233E1,-9.311325476E-1,1.158173675E1,-2.114454921E0,1.180993453E1
1.380041133E1,-3.661997142E-1,1.207649071E1,-2.773008694E0,1.239618116E1
1.381043133E1,6.222314537E-2,1.240146493E1,-3.199405786E0,1.280766963E1
1.382045033E1,3.200049564E-1,1.276242290E1,-3.108308505E0,1.313938444E1
1.383046933E1,6.264341399E-1,1.319430878E1,-2.736073587E0,1.348956273E1
1.384048933E1,9.561177000E-1,1.356991403E1,-2.202150292E0,1.378064562E1
1.385050833E1,1.269978402E0,1.363576888E1,-1.784235756E0,1.381052263E1
1.386052733E1,1.474129551E0,1.341627610E1,-1.730321504E0,1.360748084E1
1.387054633E1,1.555059109E0,1.296723567E1,-1.881579033E0,1.319498955E1
1.388056633E1,1.495994337E0,1.211742239E1,-1.837513247E0,1.234691781E1
1.389058533E1,1.297994167E0,1.084913442E1,-1.601875718E0,1.104330170E1
1.390060433E1,1.141552497E0,9.184114621E0,-1.531733104E0,9.380688129E0
1.391062333E1,1.064116723E0,7.030695609E0,-1.381697643E0,7.243763768E0
1.392064333E1,1.209536026E0,4.172533329E0,-1.027627686E0,4.464194265E0
1.393066233E1,1.602109899E0,4.935400844E-1,-6.780156451E-1,1.808326065E0
1.394068133E1,2.017924115E0,-3.649322718E0,-1.355336349E-1,4.172282756E0
1.395070133E1,2.446117764E0,-8.291666375E0,5.496083044E-1,8.662406864E0
1.396072033E1,2.498287207E0,-1.372833381E1,1.155844261E0,1.400159149E1
1.397073933E1,-2.537855315E0,-2.832253268E1,2.981145598E1,4.119865865E1
1.398075833E1,-9.540945050E0,-3.962760023E1,5.988512449E0,4.119755592E1
1.399077833E1,-7.668760153E0,-1.865285416E1,-1.469007566E1,2.495069485E1
1.400079733E1,-2.211648217E0,-1.338543555E1,7.304056449E0,1.540813140E1
1.401081633E1,3.399106619E0,-1.371273110E1,5.302929922E0,1.509019503E1
1.402083633E1,2.951620667E0,-1.129782636E1,8.481834201E0,1.443240993E1
1.403085533E1,8.665155521E-1,-7.940037045E0,5.667920725E0,9.793894161E0
1.404087433E1,-8.797731634E-1,-5.704734210E0,4.136610082E0,7.101375655E0
1.405089333E1,-2.231596870E0,-4.016030263E0,2.838602175E0,5.400572744E0
1.406091333E1,-2.561544140E0,-2.439495792E0,1.123936882E0,3.711587560E0
1.407093233E1,-3.007426201E0,-2.104688317E0,4.941476101E-1,3.703850311E0
1.408095133E1,-3.505715101E0,-2.083519058E0,4.618888137E-1,4.104196793E0
1.409097133E1,-3.660675672E0,-1.733521686E0,5.203095147E-1,4.083670628E0
1.410099033E1,-3.433262837E0,-1.329444585E0,5.634686905E-1,3.724542063E0
1.411100933E1,-2.797882749E0,-9.327671367E-1,5.431243269E-1,2.998864193E0
1.412102833E1,-2.058386994E0,-5.713220859E-1,4.617935041E-1,2.185547799E0
1.413104833E1,-1.335830768E0,-1.994128579E-1,4.288783577E-1,1.417090673E0
1.414106733E1,-6.315672643E-1,2.206207091E-1,5.124280527E-1,8.426940227E-1
1.415108633E1,3.643677816E-2,7.060033429E-1,6.798133716E-1,9.807724400E-1
1.416110633E1,5.806446672E-1,1.339293051E0,6.695487307E-1,1.605973103E0
1.417112533E1,9.835735935E-1,2.061937569E0,-3.266324830E-1,2.307746159E0
1.418114433E1,1.245128320E0,2.726001758E0,-9.411128676E-1,3.141197789E0
1.419116333E1,1.312070461E0,3.502107369E0,-1.114622560E0,3.902392647E0
1.420118333E1,1.216183287E0,4.482508848E0,-1.016908278E0,4.754586187E0
1.421120233E1,1.065760303E0,5.494950145E0,-9.999066210E-1,5.685959495E0
1.422122133E1,9.111692762E-1,6.456607790E0,-1.300234820E0,6.648956624E0
1.423124133E1,7.346992846E-1,7.276831228E0,-1.834270088E0,7.540331725E0
1.424126033E1,5.778639507E-1,7.972962132E0,-2.429142128E0,8.354806005E0
1.425127933E1,4.862325266E-1,8.567533332E0,-2.829274696E0,9.035698356E0
1.426129833E1,4.581761241E-1,9.071945729E0,-2.900604295E0,9.535388296E0
1.427131833E1,4.788091940E-1,9.499049749E0,-2.797773407E0,9.914067804E0
1.428133733E1,5.819727892E-1,9.916121117E0,-2.680788748E0,1.028857515E1
1.429135633E1,7.461985651E-1,1.024263315E1,-2.561983266E0,1.058452192E1
1.430137633E1,1.003316863E0,1.040597161E1,-2.365779798E0,1.071857285E1
1.431139533E1,1.284436228E0,1.034879519E1,-2.188436233E0,1.065535506E1
1.432141433E1,1.556464341E0,1.005127015E1,-2.034218844E0,1.037249532E1
1.433143333E1,1.764103501E0,9.442297844E0,-1.842417014E0,9.780774519E0
1.434145333E1,1.974656328E0,8.541993279E0,-1.702097579E0,8.930960360E0
1.435147233E1,2.092679013E0,7.452300907E0,-1.542737564E0,7.892789967E0
1.436149133E1,1.957644292E0,6.281234590E0,-1.247484748E0,6.696454087E0
1.437151133E1,1.584213619E0,5.074711341E0,-9.777469162E-1,5.405406277E0
1.438153033E1,1.154069631E0,3.681435041E0,-8.615287542E-1,3.953109216E0
1.439154933E1,7.945997697E-1,1.849761994E0,-7.369175720E-1,2.143841350E0
1.440156833E1,4.495019259E-1,-5.314224404E-1,-4.782415755E-1,8.444979550E-1
1.441158833E1,-6.919931218E-2,-3.543834270E0,3.041835603E-1,3.557538125E0
1.442160733E1,-1.788776996E0,-8.407205603E0,5.555396907E0,1.023441566E1
1.443162633E1,-7.718966101E0,-1.849089798E1,2.698743559E1,3.361275689E1
1.444164633E1,-6.058577880E0,-2.011629295E1,-5.611259451E0,2.174529468E1
1.445166571E1,-5.048061486E0,-1.919739249E1,-1.302818412E0,1.989271573E1
1.446168471E1,-2.636215423E0,-1.834440652E1,3.001323169E-1,1.853528963E1
1.447170371E1,1.645941505E0,-1.668735355E1,3.281408308E0,1.708638441E1
1.448172371E1,3.562502090E0,-1.509990817E1,4.871893650E0,1.626142662E1
1.449174271E1,4.045986133E0,-1.275006423E1,5.643908549E0,1.451853455E1
1.450176171E1,3.700563623E0,-1.032505316E1,4.638885614E0,1.190882671E1
1.451178171E1,3.147609980E0,-8.339270897E0,3.995679613E0,9.768128953E0
1.452180071E1,2.629380612E0,-6.579848385E0,3.829027828E0,8.054160495E0
1.453181971E1,2.035695412E0,-4.967500888E0,3.088068075E0,6.193245137E0
1.454183871E1,1.349382275E0,-3.519325665E0,2.272289106E0,4.401111615E0
1.455185871E1,6.954625672E-1,-2.262247975E0,2.094673791E0,3.160552542E0
1.456187771E1,2.692232041E-1,-1.339581318E0,1.800076156E0,2.259918895E0
1.457189671E1,3.612161323E-2,-7.301845032E-1,1.310634970E0,1.500745882E0
1.458191671E1,-1.136619785E-1,-2.615576506E-1,8.689506251E-1,9.145526987E-1
1.459193571E1,-2.289703868E-1,8.035419166E-2,4.784756103E-1,5.364915133E-1
1.460195471E1,-1.950623833E-1,1.750621283E-1,1.436394837E-1,2.988785429E-1
1.461197371E1,-3.023789634E-1,8.538197851E-1,-7.972123057E-2,9.092836398E-1
1.462199371E1,-4.579365344E-1,1.718767991E0,-4.054965118E-1,1.824361997E0
1.463201271E1,-5.621592066E-1,2.539629360E0,-6.826144803E-1,2.689182551E0
1.464203171E1,-6.530418947E-1,3.414103850E0,-1.030505100E0,3.625535764E0
1.465205171E1,-6.882117274E-1,4.152600755E0,-1.394258047E0,4.434149740E0
1.466207071E1,-7.005701101E-1,4.733557298E0,-1.714964962E0,5.083155319E0
1.467208971E1,-6.915484411E-1,5.216777047E0,-2.018600346E0,5.636288616E0
1.468210871E1,-6.183845705E-1,5.690067639E0,-2.290237427E0,6.164775477E0
1.469212871E1,-5.396858718E-1,6.215389679E0,-2.579731612E0,6.751099532E0
1.470214771E1,-4.187881100E-1,6.829379482E0,-2.786056756E0,7.387687043E0
1.471216671E1,-3.040346025E-1,7.520106974E0,-2.814098248E0,8.035147472E0
1.472218671E1,-1.701725404E-1,8.231664587E0,-2.703011675E0,8.665767865E0
1.473220571E1,-9.357737750E-4,8.975585369E0,-2.442136541E0,9.301890372E0
1.474222471E1,2.103421810E-1,9.663808499E0,-2.154004319E0,9.903190049E0
1.475224371E1,5.078036360E-1,1.027473670E1,-1.996611745E0,1.047924316E1
1.476226371E1,7.890452803E-1,1.076475442E1,-1.937177429E0,1.096609259E1
1.477228271E1,1.023298115E0,1.105844135E1,-1.993670157E0,1.128321696E1
1.478230171E1,1.166073088E0,1.104882502E1,-2.059809768E0,1.129951668E1
1.479232171E1,1.178759499E0,1.069121867E1,-1.930562328E0,1.092788641E1
1.480234071E1,1.056859525E0,9.968946033E0,-1.725456475E0,1.017221889E1
1.481235971E1,9.208135276E-1,8.939734921E0,-1.523501248E0,9.115251728E0
1.482237871E1,8.034703613E-1,7.779376025E0,-1.598973891E0,7.982541792E0
1.483239871E1,7.123420170E-1,6.489638126E0,-2.203104558E0,6.890319576E0
1.484241771E1,5.674539334E-1,4.974398848E0,-2.350220065E0,5.530839197E0
1.485243671E1,5.120635519E-1,3.237731946E0,-2.018915072E0,3.849822762E0
1.486245671E1,5.269011540E-1,1.327322631E0,-1.751955325E0,2.260256104E0
1.487247571E1,5.367346358E-1,-8.237136412E-1,-1.513411438E0,1.804716713E0
1.488249471E1,4.706496969E-1,-3.303170475E0,-3.553633618E-1,3.355403022E0
1.489251371E1,-1.006192378E0,-6.909880439E0,1.370921810E1,1.538510746E1
1.490253371E1,-2.009715794E0,-1.068067965E1,1.148658852E1,1.581320938E1
1.491255271E1,-1.377716859E0,-1.487706611E1,-7.247185260E0,1.660562838E1
1.492257171E1,-2.565238996E0,-1.830800877E1,3.437503822E0,1.880372486E1
1.493259071E1,-1.559634555E0,-1.659111423E1,4.997394778E0,1.739745630E1
1.494261071E1,-7.452828911E-1,-1.405127437E1,6.256962213E0,1.539945889E1
1.495262971E1,-2.530356992E-1,-1.255839718E1,4.855386668E0,1.346670511E1
1.496264871E1,-2.448220423E-1,-1.235348852E1,3.531929923E0,1.285080330E1
1.497266871E1,-4.953339370E-1,-1.198281832E1,3.155679138E0,1.240127419E1
1.498268771E1,-6.850463372E-1,-1.039417193E1,3.014173011E0,1.084404618E1
1.499270671E1,-7.821628151E-1,-8.648706134E0,3.451248580E0,9.344678337E0
1.500272571E1,-7.997836187E-1,-7.146367568E0,3.534462352E0,8.012655451E0
1.501274571E1,-6.406580767E-1,-5.790994674E0,2.920229890E0,6.517193007E0
1.502276471E1,-3.086960759E-1,-4.508825997E0,2.248902144E0,5.048006140E0
1.503278371E1,7.322051547E-2,-3.266190929E0,1.673847049E0,3.670848454E0
1.504280371E1,3.319796886E-1,-2.139513749E0,1.435117513E0,2.597554980E0
1.505282271E1,4.358327436E-1,-1.125012478E0,1.495755186E0,1.921688537E0
1.506284171E1,4.786127275E-1,-1.440981978E-1,1.530026886E0,1.609601412E0
1.507286071E1,5.215714169E-1,7.706624383E-1,1.252330775E0,1.560221044E0
1.508288071E1,5.328886297E-1,1.644878481E0,7.987050998E-1,1.904606349E0
1.509289971E1,5.664259198E-1,2.314780530E0,3.245637381E-1,2.405075642E0
1.510291871E1,4.950576561E-1,2.570046576E0,-1.595187673E-1,2.622149447E0
1.511293871E1,2.574409184E-1,3.413384643E0,-5.364107001E-1,3.464853097E0
1.512295771E1,1.349242088E-1,4.481414834E0,-8.539981252E-1,4.564054804E0
1.513297671E1,1.449387351E-1,5.630642971E0,-9.673376298E-1,5.714970655E0
1.514299571E1,1.800769928E-1,6.797977595E0,-9.623195493E-1,6.868113717E0
1.515301571E1,2.592255251E-1,7.851663982E0,-9.766067822E-1,7.916412443E0
1.516303471E1,4.259676868E-1,8.755380982E0,-1.091202853E0,8.833395060E0
1.517305371E1,6.166281400E-1,9.496539540E0,-1.465709415E0,9.628748495E0
1.518307371E1,8.031750769E-1,1.010808755E1,-1.913918960E0,1.031899267E1
1.519309271E1,9.941953531E-1,1.079491436E1,-2.161009868E0,1.105389362E1
1.520311171E1,1.175807825E0,1.149324382E1,-2.210183197E0,1.176274149E1
1.521313071E1,1.198482962E0,1.208852195E1,-1.877856696E0,1.229207346E1
1.522315071E1,1.063502693E0,1.245997684E1,-1.267381654E0,1.256934036E1
1.523316971E1,8.955048779E-1,1.257466647E1,-8.084144014E-1,1.263240673E1
1.524318871E1,7.484126133E-1,1.228478842E1,-7.493464136E-1,1.233035555E1
1.525320871E1,6.353292167E-1,1.149575461E1,-9.361918509E-1,1.155129744E1
1.526322771E1,5.233667314E-1,1.035154222E1,-1.241075031E0,1.043880291E1
1.527324671E1,3.146082687E-1,9.092096989E0,-1.483678347E0,9.217727890E0
1.528326571E1,-8.762169600E-2,7.800904888E0,-1.586017485E0,7.960982734E0
1.529328571E1,-4.893961626E-1,6.310389392E0,-1.620017874E0,6.533374380E0
1.530330471E1,-7.483143800E-1,4.508644148E0,-1.729036871E0,4.886452186E0
1.531332371E1,-7.469698128E-1,2.466135707E0,-1.832891023E0,3.162163615E0
1.532334371E1,-5.597352433E-1,1.873529756E-1,-1.921157666E0,2.009788909E0
1.533336271E1,-1.627777129E-1,-2.694482342E0,-1.665833148E0,3.172023290E0
1.534338171E1,3.176839407E-1,-6.805233405E0,-1.991036133E-1,6.815553318E0
1.535340071E1,-2.311124266E0,-1.904997132E1,1.974782481E1,2.753578195E1
1.536342071E1,-6.968280675E0,-2.765715696E1,6.630846630E0,2.928213438E1
1.537343971E1,-4.009748014E0,-2.057076194E1,-1.300678156E1,2.466598250E1
1.538345871E1,-1.099445820E0,-2.485684352E1,6.337310996E-1,2.488921586E1
1.539347871E1,1.598779910E0,-1.487633404E1,1.564603227E0,1.504358318E1
1.540349771E1,2.976952559E0,-9.778358377E0,6.320873449E0,1.201798570E1
1.541351671E1,2.871513520E0,-8.166341833E0,5.541299270E0,1.027816746E1
1.542353571E1,2.121770373E0,-7.062668184E0,3.365846779E0,8.106301002E0
1.543355571E1,1.702856840E0,-6.560635604E0,2.665262051E0,7.283219257E0
1.544357471E1,1.805764035E0,-6.414836451E0,2.632413563E0,7.165229348E0
1.545359308E1,2.066661827E0,-6.407650223E0,1.696012382E0,6.943020271E0
1.546361308E1,2.289084648E0,-6.115466611E0,2.956702336E-1,6.536532818E0
1.547363208E1,2.153015847E0,-5.466247333E0,-5.588885665E-2,5.875241332E0
1.548365108E1,2.035019912E0,-4.649650338E0,1.395812237E-1,5.077404576E0
1.549367008E1,2.066353971E0,-3.793921437E0,3.600013733E-1,4.335119329E0
1.550369008E1,2.030165846E0,-3.039731775E0,4.214789987E-1,3.679563449E0
1.551370908E1,1.767382619E0,-2.486211537E0,6.719912589E-2,3.051131733E0
1.552372808E1,1.084534835E0,-2.513518034E0,-5.257477176E-1,2.787543610E0
1.553374808E1,4.263780883E-1,-1.648527728E0,-7.316772974E-1,1.853319620E0
1.554376708E1,2.113183737E-3,2.518395782E-2,-4.209890020E-1,4.217468874E-1
1.555378608E1,-3.207063299E-1,1.292381424E0,-3.836335532E-1,1.385740596E0
1.556380508E1,-4.974276057E-1,2.143541311E0,-6.353010039E-1,2.290373537E0
1.557382508E1,-4.425278056E-1,2.700682729E0,-8.249731314E-1,2.858338456E0
1.558384408E1,-3.075611679E-1,3.132818863E0,-8.256386907E-1,3.254355105E0
1.559386308E1,-1.712576009E-1,3.670068639E0,-8.396976630E-1,3.768796246E0
1.560388208E1,-7.476043453E-2,4.416097342E0,-9.946213958E-1,4.527336588E0
1.561390208E1,-5.341373026E-2,5.397950685E0,-1.063555902E0,5.501988348E0
1.562392108E1,-1.106942608E-1,6.584807993E0,-9.898715564E-1,6.659714350E0
1.563394008E1,-1.884007784E-1,7.847064562E0,-7.342664444E-1,7.883594631E0
1.564396008E1,-3.009278306E-1,9.104718204E0,-4.291458678E-1,9.119792613E0
1.565397908E1,-4.833302611E-1,1.022316894E1,-3.209326172E-1,1.023961860E1
1.566399808E1,-5.884082347E-1,1.107400664E1,-2.988617170E-1,1.109365430E1
1.567401708E1,-5.640057573E-1,1.161838242E1,-3.742709184E-1,1.163808366E1
1.568403708E1,-5.160381237E-1,1.199789946E1,-5.209050536E-1,1.202028406E1
1.569405608E1,-5.502569067E-1,1.231867888E1,-6.395240092E-1,1.234753510E1
1.570407508E1,-6.883084989E-1,1.253003234E1,-6.473171782E-1,1.256560776E1
1.571409508E1,-8.749241406E-1,1.251037517E1,-5.365522027E-1,1.255240484E1
1.572411408E1,-9.675303686E-1,1.219873260E1,-6.598642067E-1,1.225481999E1
1.573413308E1,-9.421937254E-1,1.150117381E1,-8.177646109E-1,1.156864154E1
1.574415208E1,-8.692598697E-1,1.034806312E1,-8.781312653E-1,1.042157079E1
1.575417208E1,-8.542942867E-1,8.922385647E0,-9.403514870E-1,9.012382886E0
1.576419108E1,-8.484904866E-1,7.228003469E0,-1.077096738E0,7.356908837E0
1.577421008E1,-6.924176297E-1,5.271873606E0,-1.158453873E0,5.441884680E0
1.578423008E1,-3.707848084E-1,3.128249264E0,-1.146996839E0,3.352465747E0
1.579424908E1,3.846590817E-3,8.734102964E-1,-1.180703698E0,1.468646168E0
1.580426808E1,4.895704462E-1,-1.548198279E0,-1.228756117E0,2.036280611E0
1.581428708E1,1.119418227E0,-4.540072348E0,-1.184002844E0,4.823610351E0
1.582430708E1,1.737889263E0,-8.883581770E0,7.747787319E-2,9.052308378E0
1.583432608E1,1.553827393E0,-1.736723621E1,8.494743099E0,1.939577102E1
1.584434508E1,-3.518581315E0,-3.121719211E1,2.747979454E1,4.173766411E1
1.585436508E1,-1.844249239E0,-2.549614066E1,-1.706263136E1,3.073414766E1
1.586438408E1,-1.957635521E0,-1.492234811E1,3.682231432E0,1.549411625E1
1.587440308E1,1.731719428E-1,-1.122527528E1,7.436862504E0,1.346639215E1
1.588442208E1,5.433772921E-1,-9.558149897E0,5.842715635E0,1.121565042E1
1.589444208E1,-7.633356578E-1,-7.391491619E0,5.990263106E0,9.544636282E0
1.590446108E1,-1.379435648E0,-6.125594573E0,3.861649151E0,7.371437156E0
1.591448008E1,-2.047302573E0,-6.231784687E0,2.082367887E0,6.882066857E0
1.592450008E1,-2.629333542E0,-6.816429069E0,7.252126157E-1,7.341868527E0
1.593451908E1,-2.980437792E0,-6.783720329E0,-1.626527287E-2,7.409597526E0
1.594453808E1,-3.007043208E0,-6.055112236E0,-2.106776650E-1,6.763954326E0
1.595455708E1,-2.559789098E0,-5.065239437E0,1.144662631E-1,5.676466621E0
1.596457708E1,-1.763447735E0,-4.234886867E0,6.135204180E-1,4.628220176E0
1.597459608E1,-1.042329852E0,-3.572838798E0,1.156617702E0,3.897357195E0
1.598461508E1,-4.102181384E-1,-2.687827626E0,1.660071886E0,3.185676527E0
1.599463408E1,3.741390637E-1,-1.438668235E0,2.077020462E0,2.554165290E0
1.600465408E1,1.046150203E0,-4.310432893E-1,1.495663823E0,1.875430307E0
1.601467308E1,1.223231960E0,5.639756441E-2,4.585829441E-1,1.307583813E0
1.602469208E1,9.598198646E-1,5.214739877E-1,2.771901816E-2,1.092683685E0
1.603471208E1,5.184410369E-1,1.444353483E0,1.644757444E-1,1.543369807E0
1.604473108E1,9.460591187E-2,2.742733566E0,4.004955344E-1,2.773433677E0
1.605475008E1,9.879456480E-2,3.986083163E0,-4.077446200E-1,4.008101174E0
1.606476908E1,1.457517904E-1,5.082266529E0,-1.396613306E0,5.272684836E0
1.607478908E1,2.349265069E-2,6.080773326E0,-1.464528131E0,6.254694141E0
1.608480808E1,-5.603825301E-2,7.249955086E0,-1.360919563E0,7.376794093E0
1.609482708E1,-1.020698735E-1,8.331011705E0,-1.090559587E0,8.402707569E0
1.610484708E1,-1.246193683E-1,9.251527171E0,-7.411241321E-1,9.282001398E0
1.611486608E1,-1.966863012E-1,1.002676330E1,-8.340814123E-1,1.006331752E1
1.612488508E1,-3.661561525E-1,1.070280200E1,-1.255958679E0,1.078246137E1
1.613490408E1,-6.239087275E-1,1.125458035E1,-1.561700084E0,1.137953199E1
1.614492408E1,-8.834698462E-1,1.168715971E1,-1.618870651E0,1.183177768E1
1.615494308E1,-1.024987375E0,1.194379400E1,-1.525207611E0,1.208433170E1
1.616496208E1,-9.611448437E-1,1.187023018E1,-1.533253380E0,1.200737398E1
1.617498208E1,-7.622050256E-1,1.170197187E1,-1.683932619E0,1.184705581E1
1.618500108E1,-3.639736792E-1,1.125935402E1,-1.358302349E0,1.134682842E1
1.619502008E1,2.998180291E-1,9.527302326E0,-2.113419964E0,9.763499598E0
1.620503908E1,9.384687567E-1,8.360652410E0,-5.299305818E0,9.943031454E0
1.621505908E1,1.306197225E0,6.969181731E0,-5.893581734E0,9.220084102E0
1.622507808E1,2.104121722E0,7.098870635E0,-8.411883960E0,1.120629663E1
1.623509708E1,1.492499456E0,6.625868311E0,-3.996069038E0,7.880244492E0
1.624511708E1,6.073874196E-1,5.387670110E0,2.800447923E-1,5.429026965E0
1.625513608E1,-6.233392087E-1,3.567295053E0,4.578137721E0,5.837250274E0
1.626515508E1,-4.379620657E0,-1.248268275E0,2.012848089E1,2.063722350E1
1.627517408E1,-2.037960477E0,-4.633924252E0,-3.994908366E0,6.448707601E0
1.628519408E1,-7.034481096E-1,-9.673624220E0,1.339580149E0,9.791236886E0
1.629521308E1,2.500979667E-1,-1.478944441E1,6.963333930E0,1.634864626E1
1.630523208E1,-2.358330994E-1,-1.626093716E1,3.928429617E0,1.673039909E1
1.631525208E1,9.508312324E-1,-1.914843141E1,3.299132095E-1,1.917486241E1
1.632527108E1,2.027102782E0,-1.900853678E1,6.783477670E-1,1.912834995E1
1.633529008E1,1.534704074E0,-1.430490202E1,1.782390375E0,1.449698085E1
1.634530908E1,7.197540206E-1,-1.082577830E1,3.123610961E0,1.129037055E1
1.635532908E1,4.334201459E-1,-8.515155144E0,3.508121815E0,9.219687566E0
1.636534808E1,-2.528884225E-3,-7.126775302E0,4.024516912E0,8.184599500E0
1.637536708E1,-4.503036888E-1,-5.909855120E0,3.913544360E0,7.102463685E0
1.638538608E1,-5.197498996E-1,-5.135249319E0,3.119302440E0,6.030835202E0
1.639540608E1,-6.977566492E-2,-4.713175659E0,2.724780859E0,5.444568317E0
1.640542508E1,1.059540619E0,-4.604354882E0,9.774445421E-1,4.824739168E0
1.641544408E1,1.724408508E0,-4.987869664E0,8.137149024E-1,5.339902661E0
1.642546408E1,1.646924422E0,-5.006962577E0,1.230478268E0,5.412588204E0
1.643548308E1,1.012631039E0,-4.373281106E0,1.081067728E0,4.617327873E0
1.644550208E1,3.048951665E-1,-3.468519208E0,9.744115913E-1,3.615669303E0
1.645552192E1,8.103626937E-2,-2.498560272E0,7.294892693E-1,2.604136115E0
1.646554192E1,2.192791020E-1,-1.545972828E0,3.012934278E-1,1.590249364E0
1.647556092E1,3.755471097E-1,-8.016368937E-1,1.299178228E-2,8.853395549E-1
1.648557992E1,4.849867773E-1,-9.461321175E-2,-2.643339086E-1,5.603893729E-1
1.649559992E1,5.433446573E-1,5.744240338E-1,-6.245525059E-1,1.007597251E0
1.650561892E1,4.225747303E-1,9.582674289E-1,-8.538523833E-1,1.351262284E0
1.651563792E1,2.304884702E-1,1.649133500E0,-8.158877277E-1,1.854302839E0
1.652565692E1,2.223944619E-1,2.457845525E0,-9.247722387E-1,2.635463453E0
1.653567692E1,3.414799888E-1,3.546433357E0,-1.390894583E0,3.824707293E0
1.654569592E1,4.357722250E-1,4.968630570E0,-1.740481042E0,5.282656664E0
1.655571492E1,-2.419814284E-1,6.143078333E0,-2.857128493E0,6.779317785E0
