"Time (s)";"Linear Acceleration x (m/s^2)";"Linear Acceleration y (m/s^2)";"Linear Acceleration z (m/s^2)";"Absolute acceleration (m/s^2)"
-1.291166664E-3;6.030812377E-1;-1.619664995E0;5.982982153E-1;1.828929312E0
8.726833334E-3;7.483716828E-1;-1.230908038E0;1.064846967E0;1.791394384E0
1.874483333E-2;7.085702705E-1;-6.421336216E-1;1.233889387E0;1.561054271E0
2.876283334E-2;6.752388024E-1;-3.382658109E-1;1.306518238E0;1.509092808E0
3.878083334E-2;6.045863110E-1;-1.231701359E-1;1.187962432E0;1.338637453E0
4.879983333E-2;5.151233268E-1;2.477602682E-1;1.046906540E0;1.192791053E0
5.881783333E-2;4.703242993E-1;6.831743512E-1;1.036344130E0;1.327381368E0
6.883583334E-2;5.133902121E-1;1.004708939E0;1.101941119E0;1.577112485E0
7.885383334E-2;5.602509677E-1;1.199685222E0;1.100508551E0;1.721698246E0
8.887183333E-2;5.553036386E-1;1.323024196E0;1.018417152E0;1.759525121E0
9.888983333E-2;5.074915409E-1;1.405242480E0;8.375083923E-1;1.712797244E0
1.089078333E-1;4.349287641E-1;1.511734749E0;5.033721775E-1;1.651632081E0
1.189258333E-1;3.364891344E-1;1.655419403E0;1.583086860E-1;1.696673209E0
1.289438333E-1;3.111958337E-1;1.716132359E0;-9.550958991E-2;1.746732722E0
1.389618333E-1;2.715522963E-1;1.712278459E0;-2.696887887E-1;1.754528487E0
1.489808333E-1;1.725571811E-1;1.659951141E0;-4.473166752E-1;1.727803802E0
1.589988333E-1;6.039647520E-2;1.535857730E0;-5.608777893E-1;1.636181712E0
1.690168333E-1;-7.808371782E-3;1.403240832E0;-5.589663345E-1;1.510493021E0
1.790348333E-1;2.473839998E-2;1.245215152E0;-4.867900586E-1;1.337212520E0
1.890528333E-1;5.796754181E-2;9.938565069E-1;-3.455283451E-1;1.053803032E0
1.990708333E-1;1.310735250E-1;7.258490852E-1;-1.265068495E-1;7.483589689E-1
2.090888333E-1;2.632428181E-1;4.984996927E-1;-3.811799884E-3;5.637492836E-1
2.191068333E-1;2.403743577E-1;5.006356806E-1;-1.675402701E-2;5.556047281E-1
2.291248333E-1;2.007454383E-1;7.768207258E-1;3.466112494E-2;8.030881425E-1
2.391428333E-1;1.468142295E-1;1.098252403E0;9.915766776E-2;1.112450000E0
2.491608333E-1;3.324609876E-2;1.220223860E0;8.646219313E-2;1.223734972E0
2.591798333E-1;-5.529477954E-2;1.205210256E0;3.167729080E-2;1.206893833E0
2.691978333E-1;-1.271634918E-1;1.252126561E0;-8.823448420E-3;1.258598161E0
2.792158333E-1;-1.855163652E-1;1.315126801E0;1.246450961E-2;1.328205627E0
2.892338333E-1;-2.009997922E-1;1.351602902E0;1.303110480E-1;1.372666124E0
2.992518333E-1;-1.687091285E-1;1.330532460E0;3.102789903E-1;1.376609040E0
3.092698333E-1;-1.247731501E-1;1.275882628E0;3.937971103E-1;1.341089477E0
3.192878333E-1;-1.004042941E-1;1.225616747E0;4.218403566E-1;1.300064121E0
3.293058333E-1;-1.103925079E-1;1.183842484E0;4.200838530E-1;1.261007524E0
3.393238333E-1;-1.060433489E-1;1.176226485E0;3.790861005E-1;1.240346810E0
3.493428333E-1;-9.398463607E-2;1.154470458E0;2.659465706E-1;1.188428680E0
3.593608333E-1;-8.675923169E-2;1.131222221E0;1.098083711E-1;1.139845935E0
3.693788333E-1;-1.536490399E-1;1.159979704E0;-2.455830574E-5;1.170111509E0
3.793968333E-1;-3.337929833E-1;1.134757155E0;-4.992528141E-2;1.183885168E0
3.894148333E-1;-6.320752412E-1;1.036018440E0;-6.118584931E-2;1.215153088E0
3.994328333E-1;-1.031738863E0;9.372955129E-1;-7.541855693E-2;1.395956990E0
4.094508333E-1;-1.457315590E0;8.397431982E-1;-1.114631331E-1;1.685633827E0
4.194688333E-1;-1.863809929E0;6.808901364E-1;-2.219088507E-1;1.996657800E0
4.294868333E-1;-2.261491345E0;5.199101499E-1;-4.077257627E-1;2.356032675E0
4.395048333E-1;-2.595068566E0;2.830549389E-1;-6.882313156E-1;2.699659850E0
4.495238333E-1;-2.884222151E0;5.765822411E-2;-9.590147030E-1;3.040028139E0
4.595418333E-1;-3.022748537E0;-2.419811726E-1;-1.012650627E0;3.197033766E0
4.695598333E-1;-2.736439623E0;-5.713820198E-1;-7.718991244E-1;2.900070254E0
4.795778333E-1;-2.072666041E0;-7.407758573E-1;-6.704873550E-1;2.300923006E0
4.895958333E-1;-1.331016902E0;-8.980855465E-1;-4.551039970E-1;1.668916801E0
4.996138333E-1;-4.589836246E-1;-1.350117124E0;1.274549755E-1;1.431686763E0
5.096318333E-1;3.848368371E-1;-1.883463591E0;6.775355887E-1;2.038280884E0
5.196498333E-1;1.196681800E0;-2.277789874E0;1.147624245E0;2.817341912E0
5.296678333E-1;1.872464393E0;-2.497373872E0;1.317712147E0;3.388121082E0
5.396858333E-1;2.204912517E0;-2.398286955E0;1.459592496E0;3.569850107E0
5.497048333E-1;2.219796605E0;-2.045133256E0;1.552449497E0;3.394137069E0
5.597228333E-1;2.033110796E0;-1.470488198E0;1.527952294E0;2.937773521E0
5.697408333E-1;1.841638457E0;-8.306303126E-1;1.609815360E0;2.583231390E0
5.797588333E-1;1.632053198E0;-1.712631923E-1;1.333409582E0;2.114452609E0
5.897768333E-1;1.381747345E0;4.025334352E-1;8.487829936E-1;1.670835558E0
5.997948333E-1;1.212317255E0;8.023718888E-1;5.053350878E-1;1.539115761E0
6.098128333E-1;1.028010094E0;1.096786798E0;1.308332044E-1;1.508927885E0
6.198308333E-1;8.366535294E-1;1.272721916E0;-1.762391728E-1;1.533254855E0
6.298488333E-1;6.601430458E-1;1.326819770E0;-4.779443908E-1;1.557135313E0
6.398668333E-1;5.620577574E-1;1.243248441E0;-7.389605892E-1;1.551656650E0
6.498858333E-1;5.194578677E-1;1.078194991E0;-7.264194810E-1;1.400009349E0
6.599038333E-1;4.264251584E-1;8.815852886E-1;-7.286159876E-1;1.220619635E0
6.699218333E-1;6.353549445E-1;5.018197417E-1;-3.130897468E-1;8.680576871E-1
6.799398333E-1;8.921664101E-1;1.200059152E-1;1.738117012E-1;9.168275904E-1
6.899578333E-1;9.502263379E-1;-9.421443164E-2;3.059801173E-1;1.002711466E0
6.999758333E-1;1.039176521E0;-2.231309187E-1;3.905858195E-1;1.132357069E0
7.099938333E-1;1.150528557E0;-3.187767488E-1;5.212816143E-1;1.302716047E0
7.200118333E-1;1.224621550E0;-3.961757576E-1;5.096202198E-1;1.384328697E0
7.300298333E-1;1.221083400E0;-4.204931581E-1;5.135779077E-1;1.389827843E0
7.400478333E-1;1.086840684E0;-3.805660307E-1;5.113302380E-1;1.259964995E0
7.500665000E-1;9.507794845E-1;-3.174792516E-1;5.466877663E-1;1.141771526E0
7.600845000E-1;8.042734033E-1;-1.922517729E-1;6.208710989E-1;1.034068360E0
7.701025000E-1;6.157077152E-1;-4.023644507E-2;7.333114479E-1;9.583635227E-1
7.801205000E-1;4.028889459E-1;6.484094381E-2;8.117157394E-1;9.085187352E-1
7.901385000E-1;1.296918279E-1;1.339807606E-1;8.273453468E-1;8.480985422E-1
8.001565000E-1;-1.389602494E-1;2.035760754E-1;8.816007838E-1;9.154087127E-1
8.101745000E-1;-3.139077723E-1;2.994142789E-1;1.167553310E0;1.245539133E0
8.201925000E-1;-3.884211802E-1;3.067285609E-1;1.457096320E0;1.538857728E0
8.302105000E-1;-3.989163476E-1;2.842021626E-1;1.531585316E0;1.607998352E0
8.402285000E-1;-3.631682253E-1;3.025267518E-1;1.339820908E0;1.420751091E0
8.502475000E-1;-2.615354311E-1;2.730538613E-1;9.295342112E-1;1.003490430E0
8.602655000E-1;-1.293620449E-1;2.101734889E-1;4.617272843E-1;5.235451453E-1
8.702835000E-1;-4.305948079E-2;8.287317216E-2;6.279310271E-2;1.125391279E-1
8.803015000E-1;3.295958519E-2;-7.904149175E-2;-2.262072120E-1;2.418751629E-1
8.903195000E-1;1.048610419E-1;-1.980943108E-1;-3.395010352E-1;4.068146347E-1
9.003375000E-1;4.549660027E-2;-1.364921397E-1;-2.792197502E-1;3.141078059E-1
9.103555000E-1;-8.919810534E-2;1.090605122E-1;-2.219772631E-1;2.629152005E-1
9.203735000E-1;-9.348937690E-2;1.839972585E-1;-1.576801834E-1;2.597273474E-1
9.303915000E-1;-1.280282950E-1;1.586922634E-1;-1.449337649E-1;2.501604985E-1
9.404105000E-1;-7.777264595E-2;6.893867254E-2;-1.993975820E-1;2.248566671E-1
9.504285000E-1;-2.403147161E-2;2.544708252E-2;-3.366972222E-1;3.385115730E-1
9.604465000E-1;4.905872405E-2;1.109450698E-2;-4.540987875E-1;4.568758642E-1
9.704645000E-1;1.139902997E-1;1.627280116E-3;-4.533884239E-1;4.675013363E-1
9.804825000E-1;1.850363088E-1;5.981526196E-2;-4.081409150E-1;4.521009928E-1
9.905005000E-1;1.761643285E-1;2.041800928E-1;-4.685876763E-1;5.406457170E-1
1.000518500E0;5.405926287E-2;3.113496155E-1;-4.916502277E-1;5.844492564E-1
1.010536500E0;-6.130864084E-2;3.823237038E-1;-4.312443970E-1;5.795704391E-1
1.020554500E0;-1.423890567E-1;4.644460934E-1;-3.442238313E-1;5.953779163E-1
1.030573500E0;-2.643777627E-1;5.963142550E-1;-2.533750570E-1;6.997751150E-1
1.040591500E0;-3.663087648E-1;7.325748450E-1;-2.207920325E-1;8.482907145E-1
1.050609500E0;-4.161580324E-1;8.035828471E-1;-2.692169549E-1;9.441454702E-1
1.060627500E0;-4.378395081E-1;7.988606358E-1;-3.932597877E-1;9.922373763E-1
1.070645500E0;-4.161656338E-1;6.714036137E-1;-5.383443012E-1;9.559242825E-1
1.080663500E0;-3.408125657E-1;4.417413551E-1;-6.458998132E-1;8.535075854E-1
1.090681500E0;-1.939386946E-1;1.610136080E-1;-6.255181005E-1;6.743963918E-1
1.100699500E0;-5.372831047E-2;-1.109631962E-1;-5.224088844E-1;5.367593546E-1
1.110717500E0;7.085422039E-2;-3.966938210E-1;-4.384984162E-1;5.955393934E-1
1.120735500E0;1.922254604E-1;-5.678956175E-1;-4.025568241E-1;7.221551472E-1
1.130754500E0;3.092791164E-1;-6.073742634E-1;-4.338956342E-1;8.079743121E-1
1.140772500E0;3.955957139E-1;-4.945341110E-1;-4.613717736E-1;7.835329408E-1
1.150790500E0;4.423903960E-1;-1.995432508E-1;-5.392261344E-1;7.254595753E-1
1.160808500E0;5.180089277E-1;1.033466130E-1;-6.500576951E-1;8.376089652E-1
1.170826500E0;6.134278858E-1;2.561127234E-1;-7.864640269E-1;1.029763645E0
1.180844500E0;7.284437871E-1;2.046665812E-1;-8.516042751E-1;1.139187694E0
1.190862500E0;8.249608523E-1;-3.479093313E-4;-6.666620334E-1;1.060659604E0
1.200880500E0;9.194372392E-1;-2.941933000E-1;-4.351216491E-1;1.058888750E0
1.210898500E0;1.025475326E0;-5.066641599E-1;-3.067296573E-1;1.184226033E0
1.220917500E0;1.092341160E0;-5.677096760E-1;-2.484540403E-1;1.255879332E0
1.230935500E0;1.064288558E0;-4.351509583E-1;-2.135876781E-1;1.169481162E0
1.240953500E0;9.932811409E-1;-2.743238765E-1;-3.419076761E-1;1.085708005E0
1.250971500E0;9.232578099E-1;-1.599558467E-1;-4.058294376E-1;1.021121143E0
1.260989500E0;7.917486674E-1;-1.127173609E-1;-4.028790788E-1;8.954790382E-1
1.271007500E0;6.483585674E-1;-7.645819187E-2;-3.587945080E-1;7.449484451E-1
1.281025500E0;5.125464588E-1;2.568272531E-2;-3.197761110E-1;6.046653918E-1
1.291043500E0;3.603995687E-1;1.263425428E-1;-3.451932997E-1;5.147899585E-1
1.301061500E0;2.104588330E-1;2.409000224E-1;-4.324787807E-1;5.379253080E-1
1.311079500E0;4.720340252E-2;3.547441417E-1;-5.273949514E-1;6.373515529E-1
1.321098500E0;-9.881619036E-2;4.326565361E-1;-5.347272867E-1;6.949025751E-1
1.331116500E0;-2.327092427E-1;4.987634021E-1;-5.374428798E-1;7.692615758E-1
1.341134500E0;-2.239296484E-1;5.420971173E-1;-4.252891175E-1;7.244892031E-1
1.351152500E0;-1.010533351E-1;5.560269392E-1;-2.254078245E-1;6.084294708E-1
1.361170500E0;5.486208558E-2;5.269972676E-1;-2.915019728E-2;5.306464949E-1
1.371188500E0;2.041555345E-1;4.533603573E-1;1.078898265E-1;5.087782528E-1
1.381206500E0;3.372071725E-1;3.423106223E-1;1.533538286E-1;5.043834217E-1
1.391224500E0;5.109799898E-1;1.755000848E-1;1.644050661E-1;5.647387497E-1
1.401243500E0;6.523937309E-1;2.186741710E-2;2.043859148E-1;6.840097705E-1
1.411261500E0;7.117885780E-1;-4.591759980E-2;1.963581993E-1;7.398026414E-1
1.421279500E0;7.284601593E-1;-6.033741832E-3;1.558469351E-1;7.449690443E-1
1.431297500E0;6.396643424E-1;1.250427067E-1;1.676162108E-1;6.729794526E-1
1.441315500E0;4.654067910E-1;2.559858388E-1;1.792721967E-1;5.605985651E-1
1.451333500E0;3.121957076E-1;3.023846644E-1;1.434801471E-1;4.576998992E-1
1.461351500E0;2.232116103E-1;2.487054706E-1;1.524626398E-1;3.673182416E-1
1.471369500E0;1.908162814E-1;7.923386514E-2;1.608002577E-1;2.618121111E-1
1.481387500E0;1.351502037E-1;-1.665351337E-1;1.412026201E-1;2.567833878E-1
1.491406500E0;7.974023402E-2;-4.453444093E-1;9.142640613E-2;4.615722431E-1
1.501424500E0;-6.968126893E-3;-6.887113720E-1;4.617129587E-2;6.902924723E-1
1.511442500E0;-9.077042162E-2;-8.753007013E-1;6.652611136E-2;8.825057000E-1
1.521460500E0;-1.385445124E-1;-1.018890776E0;7.612709329E-4;1.028267268E0
1.531478500E0;-2.098559850E-1;-1.080806943E0;-5.667534370E-2;1.102449671E0
1.541496500E0;-2.749717480E-1;-1.038536251E0;-1.176384506E-1;1.080743176E0
1.551514500E0;-2.991669416E-1;-9.649636602E-1;-2.055512649E-1;1.030973834E0
1.561532500E0;-3.732494098E-1;-7.906833047E-1;-2.873275725E-1;9.203544666E-1
1.571550500E0;-5.071214122E-1;-5.294092441E-1;-3.663163662E-1;8.195327660E-1
1.581569500E0;-6.607476479E-1;-2.468267602E-1;-4.539333113E-1;8.387886235E-1
1.591587500E0;-7.530020928E-1;1.152544677E-2;-4.817988022E-1;8.940218530E-1
1.601605500E0;-7.973228180E-1;2.501403773E-1;-5.076394024E-1;9.777482536E-1
1.611623500E0;-8.325008368E-1;4.359602129E-1;-5.428688767E-1;1.085276724E0
1.621641500E0;-8.434795690E-1;5.732306170E-1;-5.951424730E-1;1.180781812E0
1.631659500E0;-7.862230486E-1;7.156793153E-1;-5.902490113E-1;1.216033495E0
1.641677500E0;-6.500554293E-1;8.015626341E-1;-5.531484280E-1;1.170917547E0
1.651695500E0;-4.832653570E-1;8.214262104E-1;-5.140755057E-1;1.082848120E0
1.661713500E0;-3.027296501E-1;7.669728452E-1;-5.138048527E-1;9.715389920E-1
1.671732500E0;-1.018532342E-1;7.114517784E-1;-5.093199652E-1;8.808771431E-1
1.681750500E0;7.799133182E-2;6.590396762E-1;-5.110758841E-1;8.376243203E-1
1.691768500E0;2.451070940E-1;6.155375612E-1;-5.206688261E-1;8.426505819E-1
1.701786500E0;4.327044833E-1;5.781071949E-1;-5.225785267E-1;8.913637951E-1
1.711804500E0;6.023936051E-1;5.429718608E-1;-6.149616835E-1;1.017779136E0
1.721822500E0;7.469034469E-1;5.308160841E-1;-7.136018727E-1;1.161403507E0
1.731840500E0;8.137634343E-1;5.710981375E-1;-7.687053021E-1;1.256690834E0
1.741858500E0;8.139680868E-1;6.902877814E-1;-7.754057727E-1;1.319202555E0
1.751877083E0;7.460053146E-1;8.456816304E-1;-7.812418056E-1;1.371874669E0
1.761896083E0;6.318407679E-1;1.026737739E0;-7.627224310E-1;1.426589867E0
1.771914083E0;4.961520356E-1;1.208506624E0;-7.420936004E-1;1.502450670E0
1.781932083E0;3.745948541E-1;1.381944981E0;-6.958865634E-1;1.591964617E0
1.791950083E0;2.749062592E-1;1.534714599E0;-5.756397430E-1;1.662011873E0
1.801968083E0;1.668298334E-1;1.675347737E0;-4.238365960E-1;1.736162347E0
1.811986083E0;1.126939720E-1;1.710726315E0;-3.115571916E-1;1.742513226E0
1.822004083E0;7.805506647E-2;1.655080703E0;-2.510865299E-1;1.675836857E0
1.832022083E0;8.124472260E-2;1.487695969E0;-1.997918306E-1;1.503248741E0
1.842041083E0;1.521919137E-1;1.233720403E0;-1.263302636E-1;1.249474988E0
1.852059083E0;2.463180524E-1;9.478342420E-1;-1.015018896E-1;9.845633381E-1
1.862077083E0;3.550598913E-1;7.088895285E-1;-1.280224478E-1;8.031074880E-1
1.872095083E0;5.147368258E-1;5.161144298E-1;-1.023748789E-1;7.360765724E-1
1.882113083E0;6.916320562E-1;3.918388778E-1;-1.041009770E-1;8.017041978E-1
1.892131083E0;8.116870880E-1;3.719519126E-1;-1.520527500E-1;9.057064607E-1
1.902149083E0;8.847357684E-1;4.429283398E-1;-1.639419667E-1;1.002905710E0
1.912167083E0;8.978966814E-1;5.410808712E-1;-1.848515368E-1;1.064498497E0
1.922185083E0;8.968330729E-1;6.509371895E-1;-1.425118482E-1;1.117290657E0
1.932204083E0;8.957162547E-1;7.657805979E-1;-8.707680859E-2;1.181655577E0
1.942222083E0;9.720896620E-1;7.622389394E-1;-1.916439548E-2;1.235448820E0
1.952240083E0;1.145629760E0;5.485968822E-1;8.960857987E-2;1.273363964E0
1.962258083E0;1.405422721E0;1.194872671E-1;1.725466561E-1;1.421007593E0
1.972276083E0;1.699250570E0;-3.073431033E-1;2.029335395E-1;1.738704778E0
1.982294083E0;1.940831208E0;-6.184629232E-1;2.714009265E-1;2.054989204E0
1.992312083E0;2.073015119E0;-7.391974014E-1;3.477396890E-1;2.228166819E0
2.002330083E0;2.174585933E0;-7.900371873E-1;3.955922055E-1;2.347227286E0
2.012349083E0;2.224839243E0;-8.676028419E-1;4.081694933E-1;2.422652820E0
2.022367083E0;2.219090846E0;-9.045133907E-1;4.303346068E-1;2.434686125E0
2.032385083E0;2.178099525E0;-8.028431743E-1;4.389849776E-1;2.362494976E0
2.042403083E0;2.119525627E0;-5.565315539E-1;4.813006195E-1;2.243605701E0
2.052421083E0;2.014720134E0;-2.356474686E-1;5.259207221E-1;2.095523694E0
2.062439083E0;1.862508924E0;1.429977518E-1;5.737077498E-1;1.954105532E0
2.072457083E0;1.696860228E0;5.746269321E-1;6.320184501E-1;1.899731051E0
2.082475083E0;1.500787885E0;1.051168576E0;6.919630086E-1;1.958604721E0
2.092494083E0;1.280930822E0;1.520801734E0;7.553929462E-1;2.127026137E0
2.102512083E0;1.091709076E0;1.863097154E0;7.920134731E-1;2.300053272E0
2.112530083E0;9.146197182E-1;2.009605574E0;8.087821182E-1;2.351419211E0
2.122548083E0;7.437465352E-1;1.997447459E0;7.661355970E-1;2.264932452E0
2.132566083E0;5.700240040E-1;1.845975922E0;7.071132175E-1;2.057319511E0
2.142584083E0;3.701696813E-1;1.621808292E0;5.213055879E-1;1.743286334E0
2.152602083E0;1.757643789E-1;1.285905633E0;2.595485473E-1;1.323560298E0
2.162620083E0;9.452842712E-2;7.794847172E-1;3.952016115E-2;7.861894753E-1
2.172638083E0;5.507083118E-2;2.242307800E-1;-1.118269030E-1;2.565492066E-1
2.182657083E0;-2.415660203E-2;-3.133616424E-1;-3.038914919E-1;4.371831414E-1
2.192675083E0;-4.296241701E-2;-8.290615046E-1;-5.168395577E-1;9.779119981E-1
2.202693083E0;-6.094552875E-2;-1.286424866E0;-6.613880642E-1;1.447769824E0
2.212711083E0;-1.188119137E-1;-1.586362470E0;-7.884549308E-1;1.775478340E0
2.222729083E0;-2.255955201E-1;-1.714579630E0;-9.008045018E-1;1.949903946E0
2.232747083E0;-3.876557797E-1;-1.734706916E0;-9.536545604E-1;2.017161895E0
2.242765083E0;-6.025245827E-1;-1.659281927E0;-9.502170555E-1;2.004785485E0
2.252783083E0;-8.110772234E-1;-1.528434690E0;-7.933396947E-1;1.903509058E0
2.262802083E0;-9.959615046E-1;-1.355899143E0;-4.812901676E-1;1.749869147E0
2.272820083E0;-1.135822225E0;-1.190908844E0;-2.075791524E-1;1.658748054E0
2.282838083E0;-1.204287273E0;-1.092986108E0;-1.318547130E-2;1.626376440E0
2.292856083E0;-1.227700694E0;-1.026022625E0;2.140231495E-1;1.614242030E0
2.302874083E0;-1.255649800E0;-9.490305823E-1;4.688603027E-1;1.642298831E0
2.312892083E0;-1.278753319E0;-8.789973110E-1;6.479146175E-1;1.681558704E0
2.322910083E0;-1.303760691E0;-8.039617467E-1;7.228784072E-1;1.693723596E0
2.332928083E0;-1.349490010E0;-7.337618297E-1;7.125418456E-1;1.693294302E0
2.342947083E0;-1.403635812E0;-6.496724367E-1;6.707703602E-1;1.685882749E0
2.352965083E0;-1.449382673E0;-5.660461432E-1;5.859097195E-1;1.662651066E0
2.362983083E0;-1.499158266E0;-4.865608478E-1;4.345614128E-1;1.634949720E0
2.373001083E0;-1.559217941E0;-4.317812079E-1;2.402117320E-1;1.635633601E0
2.383019083E0;-1.588616572E0;-4.028866071E-1;2.425534688E-2;1.639087720E0
2.393037083E0;-1.569140666E0;-3.806905764E-1;-1.546826814E-1;1.622052551E0
2.403055083E0;-1.517448941E0;-3.421129864E-1;-2.837549237E-1;1.581205060E0
2.413073083E0;-1.441722236E0;-3.121132618E-1;-4.470583013E-1;1.541375625E0
2.423092083E0;-1.355683381E0;-2.739905852E-1;-5.758736316E-1;1.498191813E0
2.433110083E0;-1.292322952E0;-1.875605518E-1;-6.402093029E-1;1.454353989E0
2.443128083E0;-1.254220156E0;-4.338458598E-2;-6.794423658E-1;1.427092271E0
2.453146083E0;-1.250475599E0;1.152790260E-1;-7.014489466E-1;1.438405055E0
2.463164083E0;-1.261841417E0;2.878555030E-1;-6.932751238E-1;1.468242129E0
2.473182083E0;-1.272980947E0;4.783993042E-1;-6.217321014E-1;1.495291675E0
2.483200083E0;-1.283482547E0;6.239686614E-1;-5.437144572E-1;1.527183600E0
2.493218083E0;-1.274828668E0;7.311925632E-1;-4.619008005E-1;1.540513890E0
2.503237083E0;-1.265060894E0;8.023379749E-1;-4.508038084E-1;1.564400641E0
2.513255083E0;-1.219652002E0;8.412704909E-1;-4.188699710E-1;1.539720461E0
2.523273083E0;-1.172936842E0;8.480573541E-1;-3.590745896E-1;1.491280212E0
2.533291083E0;-1.065739837E0;7.417666680E-1;-3.382836449E-1;1.341810350E0
2.543309083E0;-9.089496732E-1;5.247063285E-1;-3.654855499E-1;1.111344198E0
2.553327083E0;-6.834681737E-1;1.921588022E-1;-4.017505661E-1;8.157556418E-1
2.563345083E0;-4.544163644E-1;-1.415353632E-1;-4.183014755E-1;6.336423405E-1
2.573363083E0;-2.575464606E-1;-4.516985786E-1;-4.672391622E-1;6.990523728E-1
2.583382083E0;-7.067821920E-2;-7.430863845E-1;-4.938605118E-1;8.950256927E-1
2.593400083E0;7.656928897E-2;-9.650940531E-1;-4.663984787E-1;1.074614781E0
2.603418083E0;1.668596542E-1;-1.108960701E0;-4.475406966E-1;1.207447165E0
2.613436083E0;2.188601124E-1;-1.124960437E0;-4.062353805E-1;1.215920606E0
2.623454083E0;2.625423217E-1;-9.996271241E-1;-2.853955793E-1;1.072209632E0
2.633472083E0;2.849973840E-1;-8.038816398E-1;-2.246710753E-1;8.820012992E-1
2.643490083E0;3.405447632E-1;-6.719965214E-1;-1.757463256E-1;7.735869902E-1
2.653508083E0;5.052450407E-1;-7.978677785E-1;-7.436152652E-2;9.473094425E-1
2.663527083E0;7.867960757E-1;-1.318284005E0;4.303316832E-2;1.535829625E0
2.673545083E0;1.096648804E0;-2.048715261E0;1.643032515E-1;2.329563989E0
2.683563083E0;1.387809153E0;-2.691634163E0;2.520826761E-1;3.038824508E0
2.693581083E0;1.577679355E0;-3.147728094E0;3.014479405E-1;3.533855566E0
2.703599083E0;1.637746047E0;-3.447996651E0;3.941070127E-1;3.837474867E0
2.713617083E0;1.544795199E0;-3.487437875E0;5.237257504E-1;3.850052441E0
2.723635083E0;1.351948180E0;-3.262712420E0;6.777512779E-1;3.596165042E0
2.733653083E0;1.092938746E0;-2.797612608E0;8.590477075E-1;3.123958126E0
2.743672083E0;7.962100929E-1;-2.193311641E0;1.067991527E0;2.566159069E0
2.753689958E0;4.931518292E-1;-1.507899853E0;1.315039970E0;2.060653007E0
2.763707958E0;1.079319996E-1;-7.684521908E-1;1.500452254E0;1.689238010E0
2.773725958E0;-2.398270583E-1;-3.265026748E-2;1.668051581E0;1.685520435E0
2.783743958E0;-4.616522938E-1;5.745210975E-1;1.783158699E0;1.929469429E0
2.793761958E0;-6.516002637E-1;1.019445677E0;1.778810125E0;2.151282839E0
2.803779958E0;-8.134891999E-1;1.308615634E0;1.591196948E0;2.214982457E0
2.813798958E0;-9.505818486E-1;1.396747792E0;1.242810484E0;2.097400330E0
2.823816958E0;-1.068731858E0;1.325975432E0;7.303295141E-1;1.853046095E0
2.833834958E0;-1.135132254E0;1.079660304E0;1.748164722E-1;1.576309742E0
2.843852958E0;-1.156344783E0;6.929143506E-1;-3.180394149E-1;1.385067732E0
2.853870958E0;-1.144826937E0;2.353773272E-1;-7.271854663E-1;1.376528207E0
2.863888958E0;-1.168717491E0;-1.743107611E-1;-1.169374133E0;1.662444188E0
2.873906958E0;-1.231449344E0;-4.623083514E-1;-1.626267378E0;2.091636222E0
2.883924958E0;-1.344227516E0;-6.844165921E-1;-1.940358899E0;2.457715676E0
2.893943958E0;-1.496527603E0;-8.170027918E-1;-2.042302034E0;2.660467258E0
2.903961958E0;-1.602061660E0;-8.777401596E-1;-2.060893841E0;2.753963103E0
2.913979958E0;-1.657611963E0;-8.692616969E-1;-2.027484459E0;2.759345312E0
2.923997958E0;-1.697580020E0;-7.798998696E-1;-1.864018821E0;2.639050568E0
2.934015958E0;-1.661431364E0;-6.394532579E-1;-1.506090286E0;2.331858185E0
2.944033958E0;-1.549357781E0;-5.009081608E-1;-1.015815725E0;1.919192567E0
2.954051958E0;-1.419281207E0;-3.173225462E-1;-6.278482890E-1;1.584060042E0
2.964069958E0;-1.368589355E0;-2.790408254E-2;-4.687325411E-1;1.446902089E0
2.974088958E0;-1.299266521E0;2.820153040E-1;-3.459726604E-1;1.373798823E0
2.984106958E0;-1.179357085E0;5.800782913E-1;-2.237822986E-1;1.333211339E0
2.994124958E0;-1.007685172E0;8.167145240E-1;-2.341611063E-1;1.318060485E0
3.004142958E0;-7.174814272E-1;1.034054360E0;-3.243286800E-1;1.299706548E0
3.014160958E0;-3.416516411E-1;1.153089638E0;-2.182157858E-1;1.222276436E0
3.024178958E0;8.928815246E-2;1.138366349E0;5.772298202E-3;1.141877243E0
3.034196958E0;4.646063071E-1;1.062157248E0;1.195439486E-1;1.165473207E0
3.044215958E0;8.268565196E-1;9.579043168E-1;1.655809047E-1;1.276201168E0
3.054233958E0;1.154594711E0;8.659732229E-1;1.409693527E-1;1.450127901E0
3.064251958E0;1.413293073E0;7.593404746E-1;7.006835461E-2;1.605896896E0
3.074269958E0;1.594846780E0;7.183450609E-1;4.850144785E-2;1.749830926E0
3.084287958E0;1.678756664E0;7.364486253E-1;3.048270464E-2;1.833442039E0
3.094305958E0;1.669947249E0;8.030601060E-1;-3.305431008E-2;1.853300282E0
3.104323958E0;1.640528153E0;9.098407888E-1;-7.251833797E-2;1.877339018E0
3.114341958E0;1.537070442E0;1.087746418E0;-1.202333536E-1;1.886858202E0
3.124360958E0;1.394050471E0;1.260597714E0;-1.482853889E-1;1.885330706E0
3.134378958E0;1.290543644E0;1.448829526E0;-6.218806207E-2;1.941256616E0
3.144396958E0;1.145172508E0;1.672182639E0;2.389462849E-2;2.026866006E0
3.154414958E0;1.032494323E0;1.792447586E0;5.490184665E-2;2.069281781E0
3.164432958E0;9.791525137E-1;1.871176836E0;1.132278228E-1;2.114914405E0
3.174450958E0;9.808248174E-1;1.844262688E0;1.751720560E-1;2.096188787E0
3.184468958E0;1.038328675E0;1.720564256E0;1.758415622E-1;2.017272428E0
3.194487958E0;1.141819714E0;1.548718096E0;1.356863751E-1;1.928909224E0
3.204505958E0;1.222425921E0;1.360925410E0;1.087003237E-1;1.832555283E0
3.214523958E0;1.262898594E0;1.182820975E0;7.175763348E-2;1.731798913E0
3.224541958E0;1.296225384E0;1.033008294E0;2.529565791E-2;1.657693051E0
3.234559958E0;1.314361108E0;8.900543958E-1;-6.457780084E-2;1.588682549E0
3.244577958E0;1.323591523E0;7.626804042E-1;-9.942548851E-2;1.530836812E0
3.254595958E0;1.304833070E0;6.842014146E-1;-5.557429472E-2;1.474384420E0
3.264614958E0;1.238925009E0;6.877097440E-1;-1.192365129E-2;1.417046945E0
3.274632958E0;1.193390987E0;7.245805317E-1;1.025326715E-1;1.399897119E0
3.284650958E0;1.191432170E0;7.639849180E-1;2.641222394E-1;1.439772248E0
3.294668958E0;1.211090509E0;7.770587075E-1;4.023030549E-1;1.494124561E0
3.304686958E0;1.392488095E0;6.158357692E-1;5.024547493E-1;1.603351978E0
3.314704958E0;1.718896630E0;1.418739170E-1;5.209781438E-1;1.801708095E0
3.324722958E0;2.084169268E0;-4.434633601E-1;4.891225129E-1;2.186243839E0
3.334740958E0;2.432731149E0;-1.000762653E0;4.480510855E-1;2.668418353E0
3.344759958E0;2.817776147E0;-1.543874847E0;3.701942396E-1;3.234262780E0
3.354777958E0;3.173136000E0;-2.018110934E0;3.178376859E-1;3.773934898E0
3.364795958E0;3.390927826E0;-2.317849149E0;2.845313426E-1;4.117253245E0
3.374813958E0;3.527218237E0;-2.340713516E0;2.827947378E-1;4.242662032E0
3.384831958E0;3.528698752E0;-1.991050020E0;3.514451426E-1;4.066879486E0
3.394849958E0;3.378976117E0;-1.242128699E0;5.060613120E-1;3.635445139E0
3.404867958E0;3.125565392E0;-3.111227435E-1;6.557015008E-1;3.208722618E0
3.414886958E0;2.765478650E0;6.065457129E-1;6.237014437E-1;2.899098714E0
3.424904958E0;2.398913777E0;1.390566700E0;6.171595788E-1;2.840659959E0
3.434922958E0;2.029952130E0;1.998622749E0;6.340586168E-1;2.918429179E0
3.444940958E0;1.705265601E0;2.330268050E0;5.852337813E-1;2.946282154E0
3.454958958E0;1.492503549E0;2.299602327E0;5.390934026E-1;2.793986293E0
3.464976958E0;1.351239497E0;1.926502022E0;4.411408095E-1;2.394131039E0
3.474994958E0;1.116128803E0;1.375569761E0;1.789317791E-1;1.780435973E0
3.485013958E0;8.906613368E-1;7.151641756E-1;-8.620959342E-2;1.145499677E0
3.495031958E0;7.189432311E-1;5.687411249E-2;-2.129357135E-1;7.519678532E-1
3.505049958E0;5.200648087E-1;-5.325193781E-1;-3.946093251E-1;8.424730338E-1
3.515067958E0;3.032330954E-1;-1.030316235E0;-5.792263520E-1;1.220247935E0
3.525085958E0;5.243782997E-3;-1.309005058E0;-6.746178281E-1;1.472627229E0
3.535103958E0;-3.692130768E-1;-1.397286905E0;-7.276240075E-1;1.618074685E0
3.545121958E0;-7.823861057E-1;-1.412047032E0;-7.470847837E-1;1.778803112E0
3.555140958E0;-1.112625151E0;-1.452334347E0;-7.026593933E-1;1.959831627E0
3.565158958E0;-1.337907845E0;-1.513593287E0;-5.687031180E-1;2.098662735E0
3.575176958E0;-1.452151914E0;-1.658846895E0;-4.044682789E-1;2.241453276E0
3.585194958E0;-1.448833035E0;-1.823095767E0;-2.663125332E-1;2.343868107E0
3.595212958E0;-1.445736934E0;-1.928991181E0;-1.847334230E-1;2.417703186E0
3.605230958E0;-1.500321277E0;-1.912252357E0;-2.061289698E-1;2.439295423E0
3.615248958E0;-1.540744248E0;-1.779820524E0;-2.772785111E-1;2.370345398E0
3.625267958E0;-1.606256452E0;-1.592144782E0;-4.402579530E-1;2.304085906E0
3.635285958E0;-1.672207782E0;-1.442575929E0;-6.016703045E-1;2.288954201E0
3.645303958E0;-1.735085231E0;-1.308715037E0;-6.966870473E-1;2.282242022E0
3.655321958E0;-1.790389366E0;-1.143857469E0;-7.635107819E-1;2.257621028E0
3.665339958E0;-1.845013470E0;-1.019770197E0;-8.246936345E-1;2.263653143E0
3.675357958E0;-1.894348183E0;-9.594666928E-1;-8.838803939E-1;2.300081721E0
3.685375958E0;-1.955000181E0;-9.287787509E-1;-8.441975340E-1;2.323214401E0
3.695393958E0;-2.061844014E0;-9.127924633E-1;-7.922263849E-1;2.389981896E0
3.705412958E0;-2.191138231E0;-9.205558115E-1;-8.456647465E-1;2.522629306E0
3.715430958E0;-2.300630853E0;-9.448790592E-1;-8.466932718E-1;2.627277727E0
3.725448958E0;-2.388196415E0;-9.973595738E-1;-7.749327330E-1;2.701615994E0
3.735466958E0;-2.431239524E0;-1.081671746E0;-7.413211101E-1;2.762335312E0
3.745484958E0;-2.499454896E0;-1.138445871E0;-6.942568713E-1;2.832900701E0
3.755502833E0;-2.562938116E0;-1.133613732E0;-6.287236172E-1;2.872111639E0
3.765521833E0;-2.631153488E0;-1.091910220E0;-5.699222624E-1;2.905176069E0
3.775539833E0;-2.679810508E0;-1.045680964E0;-5.449037808E-1;2.927755654E0
3.785557833E0;-2.713934859E0;-9.745080703E-1;-5.072560443E-1;2.927869036E0
3.795575833E0;-2.770195599E0;-8.520083177E-1;-4.837864170E-1;2.938358577E0
3.805593833E0;-2.810001689E0;-7.229526669E-1;-4.423764358E-1;2.935041219E0
3.815611833E0;-2.817810645E0;-5.873457956E-1;-3.786697787E-1;2.903174593E0
3.825629833E0;-2.823124595E0;-4.584386641E-1;-3.686061358E-1;2.883759520E0
3.835647833E0;-2.800805773E0;-3.653211701E-1;-4.026006782E-1;2.853079010E0
3.845666833E0;-2.736719704E0;-3.392344022E-1;-4.246552062E-1;2.790169666E0
3.855684833E0;-2.605496491E0;-4.239488626E-1;-4.620504892E-1;2.679894635E0
3.865702833E0;-2.432006679E0;-6.042892724E-1;-5.515643442E-1;2.565939445E0
3.875720833E0;-2.235488777E0;-8.649634087E-1;-6.403186458E-1;2.481044083E0
3.885738833E0;-2.066176216E0;-1.136466004E0;-6.791353869E-1;2.453948656E0
3.895756833E0;-1.945400807E0;-1.362398908E0;-6.825326923E-1;2.471146690E0
3.905775833E0;-1.780565459E0;-1.542431754E0;-6.727274964E-1;2.449912520E0
3.915793833E0;-1.617814059E0;-1.602320107E0;-6.498397402E-1;2.367919707E0
3.925811833E0;-1.489196949E0;-1.551308997E0;-6.206200341E-1;2.238177023E0
3.935829833E0;-1.395771307E0;-1.394590169E0;-5.605632821E-1;2.051168076E0
3.945847833E0;-1.272251215E0;-1.172000703E0;-5.060034976E-1;1.802289749E0
3.955865833E0;-1.096081624E0;-9.572342259E-1;-4.935774335E-1;1.536655776E0
3.965883833E0;-9.064534968E-1;-7.359469342E-1;-5.675401799E-1;1.298220970E0
3.975902833E0;-7.115330547E-1;-5.460135823E-1;-6.312888638E-1;1.096784277E0
3.985920833E0;-5.101070005E-1;-3.989075768E-1;-6.733519790E-1;9.342051672E-1
3.995938833E0;-2.255013800E-1;-4.108522689E-1;-6.785249376E-1;8.246493499E-1
4.005956833E0;1.815461057E-1;-7.454439819E-1;-6.703804240E-1;1.018850152E0
4.015974833E0;6.655932355E-1;-1.418708764E0;-6.729794383E-1;1.705476543E0
4.025992833E0;1.113002881E0;-2.240751856E0;-6.159584876E-1;2.576654644E0
4.036010833E0;1.448686270E0;-3.026610623E0;-5.280860922E-1;3.396754141E0
4.046029833E0;1.709277375E0;-3.716360461E0;-3.127985555E-1;4.102536673E0
4.056047833E0;1.928718116E0;-4.245055175E0;1.769831579E-2;4.662698815E0
4.066065833E0;1.973334711E0;-4.561108875E0;3.909366524E-1;4.985037163E0
4.076083833E0;1.824668668E0;-4.520261981E0;8.116590214E-1;4.941758239E0
4.086101833E0;1.540723198E0;-4.031464573E0;1.234836051E0;4.489026025E0
4.096119833E0;1.237640961E0;-3.262707158E0;1.650325162E0;3.860127755E0
4.106137833E0;1.030717939E0;-2.412269987E0;2.024904814E0;3.313859602E0
4.116156833E0;8.429112196E-1;-1.518747607E0;2.175909158E0;2.784182875E0
4.126174833E0;6.499209434E-1;-5.651620442E-1;2.164660285E0;2.329712325E0
4.136192833E0;4.829349893E-1;3.093703330E-1;2.033714229E0;2.113038043E0
4.146210833E0;3.240988845E-1;1.072175868E0;1.724635087E0;2.056445322E0
4.156228833E0;1.703691530E-1;1.639072781E0;1.378558858E0;2.148490110E0
4.166246833E0;1.234873474E-2;1.991085688E0;1.030106320E0;2.241805910E0
4.176264833E0;-8.426480949E-2;2.036655378E0;6.086419398E-1;2.127324775E0
4.186283833E0;-1.964494890E-1;1.841591679E0;1.698446395E-1;1.859811689E0
4.196301833E0;-3.244444549E-1;1.493799877E0;-2.746151044E-1;1.553098752E0
4.206319833E0;-3.765261894E-1;1.025995143E0;-6.382534093E-1;1.265624518E0
4.216337833E0;-4.190056264E-1;5.250431281E-1;-8.888767666E-1;1.114153449E0
4.226355833E0;-4.888552952E-1;5.992343545E-2;-1.111422964E0;1.215660858E0
4.236373833E0;-6.001552910E-1;-3.349647653E-1;-1.322501602E0;1.490435592E0
4.246391833E0;-7.369661039E-1;-6.544899577E-1;-1.491413044E0;1.787676987E0
4.256410833E0;-8.748726851E-1;-8.150948453E-1;-1.623658351E0;2.016444460E0
4.266428833E0;-1.057395861E0;-8.402776337E-1;-1.618520987E0;2.108023409E0
4.276446833E0;-1.241173849E0;-7.820212394E-1;-1.508062406E0;2.103882592E0
4.286464833E0;-1.429676971E0;-6.893703532E-1;-1.340250825E0;2.077373341E0
4.296482833E0;-1.593522971E0;-5.679149133E-1;-1.060103706E0;1.996412451E0
4.306500833E0;-1.696300650E0;-4.665241939E-1;-6.864561009E-1;1.888465699E0
4.316519833E0;-1.708223707E0;-4.214439154E-1;-3.316072941E-1;1.790420790E0
4.326537833E0;-1.681639926E0;-4.135525131E-1;3.063005447E-2;1.732015220E0
4.336555833E0;-1.630286170E0;-4.247961241E-1;3.970657039E-1;1.730880098E0
4.346573833E0;-1.517182893E0;-4.853370255E-1;7.038515675E-1;1.741494469E0
4.356591833E0;-1.380032356E0;-5.965446353E-1;9.004068911E-1;1.752451818E0
4.366609833E0;-1.271064815E0;-5.783685654E-1;1.026612024E0;1.733219031E0
4.376627833E0;-1.186812285E0;-4.963976187E-1;1.149767835E0;1.725369545E0
4.386646833E0;-1.134443452E0;-3.982754928E-1;1.235538302E0;1.723989620E0
4.396664833E0;-1.097642246E0;-3.145807868E-1;1.170348279E0;1.635082465E0
4.406682833E0;-1.067276486E0;-2.589948159E-1;1.057192962E0;1.524406235E0
4.416700833E0;-1.022280407E0;-1.816496015E-1;9.421068943E-1;1.402005424E0
4.426718833E0;-9.564378351E-1;-1.033986533E-1;8.648049492E-1;1.293581159E0
4.436736833E0;-8.409898245E-1;-4.776999772E-2;7.623810267E-1;1.136120895E0
4.446754833E0;-6.906251657E-1;1.070976019E-2;6.323143923E-1;9.364290198E-1
4.456773833E0;-5.088802546E-1;7.735690892E-2;5.052415323E-1;7.212573819E-1
4.466791833E0;-3.347665447E-1;2.253107607E-1;3.819757579E-1;5.556429231E-1
4.476809833E0;-2.592795753E-1;4.824327135E-1;1.383959931E-1;5.649076669E-1
4.486827833E0;-2.261837500E-1;7.682814521E-1;-1.547857751E-1;8.157046736E-1
4.496845833E0;-1.563013369E-1;1.021813214E0;-4.219695801E-1;1.116508253E0
4.506863833E0;-1.131243271E-1;1.340316314E0;-6.373230442E-1;1.488430582E0
4.516882833E0;-7.353750765E-2;1.659900563E0;-7.835782798E-1;1.837028188E0
4.526900833E0;-4.558430851E-2;1.889382142E0;-9.200488579E-1;2.101983042E0
4.536918833E0;4.585094154E-2;2.007500576E0;-1.045928886E0;2.264095428E0
4.546936833E0;2.311801958E-1;1.974980117E0;-1.057788867E0;2.252311708E0
4.556954833E0;4.042607027E-1;1.936421823E0;-9.593824929E-1;2.198538369E0
4.566972833E0;5.957383043E-1;1.887003495E0;-9.537025807E-1;2.196641739E0
4.576990833E0;9.312328273E-1;1.755394365E0;-8.139126845E-1;2.147337378E0
4.587009833E0;1.223293648E0;1.512294620E0;-6.105539793E-1;2.038690396E0
4.597027833E0;1.446344460E0;1.184973335E0;-4.833033639E-1;1.931231794E0
4.607045833E0;1.661947673E0;8.127793479E-1;-4.220643049E-1;1.897582307E0
4.617063833E0;1.873709266E0;4.321297020E-1;-3.891235039E-1;1.961871452E0
4.627081833E0;2.028152942E0;7.385267258E-2;-3.293116772E-1;2.056041039E0
4.637099833E0;2.122006600E0;-2.249260139E-1;-3.127465518E-1;2.156690550E0
4.647118833E0;2.232085698E0;-6.051517367E-1;-3.376731956E-1;2.337185995E0
4.657136833E0;2.404618320E0;-1.179978644E0;-2.253148538E-1;2.687992866E0
4.667154833E0;2.586352707E0;-1.769082112E0;-2.519861240E-2;3.133609231E0
4.677172833E0;2.756402017E0;-2.191945732E0;1.645365554E-1;3.525542575E0
4.687190833E0;2.894279362E0;-2.486648909E0;3.695236005E-1;3.833643634E0
4.697208833E0;3.063003693E0;-2.735025766E0;5.464837350E-1;4.142583981E0
4.707226833E0;3.134347326E0;-2.702060333E0;7.134328151E-1;4.199315371E0
4.717245833E0;3.052084603E0;-2.243246863E0;8.755877995E-1;3.887676800E0
4.727263833E0;2.801899202E0;-1.484091745E0;9.823205352E-1;3.319355522E0
4.737281833E0;2.400626426E0;-5.867148811E-1;1.016199887E0;2.672059842E0
4.747299833E0;1.940209064E0;2.518547809E-1;9.220556223E-1;2.162875081E0
4.757317875E0;1.491070982E0;9.987547195E-1;7.437371796E-1;1.942665348E0
4.767335875E0;1.068344772E0;1.581638505E0;5.508258408E-1;1.986542227E0
4.777354875E0;7.353300530E-1;1.880756330E0;3.953746526E-1;2.057735594E0
4.787372875E0;4.309666908E-1;1.958136043E0;2.699325993E-1;2.023089879E0
4.797390875E0;9.554759681E-2;1.858734546E0;7.183008414E-2;1.862574299E0
4.807408875E0;-1.286247110E-1;1.474349114E0;-2.014599681E-2;1.480086311E0
4.817426875E0;-2.091940802E-1;9.376039535E-1;4.760916274E-2;9.618367685E-1
4.827444875E0;-2.830309653E-1;3.770489305E-1;3.716541432E-2;4.729203859E-1
4.837462875E0;-2.645379764E-1;-3.025916559E-1;-1.281826615E-2;4.021272921E-1
4.847481875E0;-1.108807504E-1;-1.106055220E0;-6.210795522E-2;1.113332874E0
4.857499875E0;8.066643298E-2;-1.953310336E0;-4.535568237E-2;1.955501337E0
4.867517875E0;2.414718801E-1;-2.688327563E0;3.733034234E-2;2.699408696E0
4.877535875E0;2.669768500E-1;-3.164449961E0;1.101258749E-1;3.177600967E0
4.887553875E0;1.956238621E-1;-3.407376044E0;2.405344983E-1;3.421452476E0
4.897571875E0;-8.441625237E-3;-3.436482314E0;3.453797162E-1;3.453805018E0
4.907590875E0;-2.418250519E-1;-3.357694007E0;3.363767948E-1;3.383154999E0
4.917608875E0;-5.243543261E-1;-3.226359111E0;2.417596362E-1;3.277619303E0
4.927626875E0;-8.508213329E-1;-3.043429554E0;6.807628132E-2;3.160853488E0
4.937644875E0;-1.211698034E0;-2.868335266E0;-2.102541804E-1;3.120859841E0
4.947662875E0;-1.582112129E0;-2.682145302E0;-4.626113103E-1;3.148172713E0
4.957680875E0;-1.870515516E0;-2.511236451E0;-6.258280760E-1;3.193242488E0
4.967699875E0;-2.086049733E0;-2.430548968E0;-8.192886145E-1;3.306116393E0
4.977717875E0;-2.328547799E0;-2.357572208E0;-1.035990373E0;3.471823386E0
4.987735875E0;-2.568540334E0;-2.162328415E0;-1.247107018E0;3.581667144E0
4.997753875E0;-2.805044419E0;-1.897595142E0;-1.511444435E0;3.708585417E0
5.007771875E0;-3.000098763E0;-1.618732072E0;-1.714844363E0;3.815963482E0
5.017789875E0;-3.109646348E0;-1.387913818E0;-1.883672921E0;3.891584362E0
5.027807875E0;-3.131777474E0;-1.231055827E0;-2.069158881E0;3.950309744E0
5.037826875E0;-3.138876579E0;-1.133400308E0;-2.193054364E0;3.993323162E0
5.047844875E0;-3.161564945E0;-1.069604262E0;-2.214332966E0;4.005348507E0
5.057862875E0;-3.149603881E0;-1.026026718E0;-2.288120296E0;4.025944600E0
5.067880875E0;-3.100548665E0;-1.010745605E0;-2.365596050E0;4.028778149E0
5.077898875E0;-3.047615576E0;-1.022564582E0;-2.381866220E0;4.000860621E0
5.087916875E0;-3.021095529E0;-1.030173563E0;-2.356693956E0;3.967654492E0
5.097935875E0;-3.025204952E0;-9.826164043E-1;-2.284825244E0;3.916353712E0
5.107953875E0;-3.041018162E0;-9.317532295E-1;-2.125158250E0;3.825212822E0
5.117971875E0;-3.030710106E0;-8.971102309E-1;-1.943727334E0;3.710537220E0
5.127989875E0;-2.996997984E0;-9.053588980E-1;-1.730665467E0;3.577271951E0
5.138007875E0;-2.985015285E0;-9.233747542E-1;-1.461952432E0;3.449672753E0
5.148025875E0;-2.978639481E0;-9.574318618E-1;-1.212364178E0;3.355412915E0
5.158044875E0;-2.925815735E0;-1.042113578E0;-9.633229315E-1;3.251828638E0
5.168062875E0;-2.815889250E0;-1.190765002E0;-6.954871255E-1;3.135419573E0
5.178080875E0;-2.681269389E0;-1.327876362E0;-4.470917036E-1;3.025285468E0
5.188098875E0;-2.544652703E0;-1.369905564E0;-2.894197793E-1;2.904421189E0
5.198116875E0;-2.413610169E0;-1.304438383E0;-1.596343960E-1;2.748191529E0
5.208134875E0;-2.318901063E0;-1.189443532E0;-4.676252246E-2;2.606581053E0
5.218153875E0;-2.282986295E0;-1.041914772E0;-4.287324697E-3;2.509508158E0
5.228171875E0;-2.222350668E0;-8.950882638E-1;6.434509993E-2;2.396698935E0
5.238189875E0;-2.110898060E0;-8.072993374E-1;1.475895703E-1;2.264819093E0
5.248207875E0;-1.905430995E0;-8.632466662E-1;2.172585601E-1;2.103108025E0
5.258225875E0;-1.505046996E0;-1.136395252E0;3.760801931E-1;1.923017666E0
5.268243875E0;-9.187630552E-1;-1.621273271E0;6.575416195E-1;1.976110714E0
5.278262875E0;-3.358254755E-1;-2.148772815E0;9.339155298E-1;2.366897036E0
5.288280875E0;1.334486639E-1;-2.423996578E0;1.148046853E0;2.685438424E0
5.298298875E0;3.998068786E-1;-2.278982706E0;1.234090970E0;2.622324968E0
5.308316875E0;4.920583999E-1;-1.961456677E0;1.116447476E0;2.309954270E0
5.318334875E0;5.034125233E-1;-1.621118320E0;9.484813826E-1;1.944496261E0
5.328352875E0;4.981681556E-1;-1.268973851E0;8.482706313E-1;1.605624243E0
5.338371875E0;4.645723933E-1;-9.340330589E-1;7.777982341E-1;1.301236088E0
5.348389875E0;4.051126420E-1;-6.668878090E-1;7.107316938E-1;1.055459683E0
5.358407875E0;3.380322146E-1;-5.228369737E-1;7.014261425E-1;9.378821421E-1
5.368425875E0;2.675241494E-1;-5.423812920E-1;6.429642186E-1;8.826945240E-1
5.378443875E0;2.240278816E-1;-7.331408554E-1;6.019723132E-1;9.747074800E-1
5.388461875E0;2.222959363E-1;-1.013363988E0;6.697235624E-1;1.234848859E0
5.398479875E0;2.054793441E-1;-1.302106513E0;6.932783398E-1;1.489408604E0
5.408498875E0;1.722928870E-1;-1.531248370E0;6.496452472E-1;1.672257563E0
5.418516875E0;8.438116908E-2;-1.592378671E0;5.827949077E-1;1.697774990E0
5.428534875E0;-8.035886943E-2;-1.465435034E0;5.127002406E-1;1.554612146E0
5.438552875E0;-3.089908487E-1;-1.183639001E0;4.155698025E-1;1.291965514E0
5.448570875E0;-5.306968009E-1;-8.122519290E-1;3.171924457E-1;1.020785648E0
5.458588875E0;-7.419409150E-1;-4.205352581E-1;3.170190758E-1;9.098501629E-1
5.468607875E0;-8.818431509E-1;-8.069099128E-2;3.413924633E-1;9.490559482E-1
5.478625875E0;-9.495199943E-1;1.606119043E-1;4.643314880E-1;1.069106231E0
5.488643875E0;-9.851236904E-1;3.569549739E-1;5.173604715E-1;1.168566385E0
5.498661875E0;-9.576289129E-1;4.357169688E-1;5.066787779E-1;1.167743891E0
5.508679875E0;-8.956256229E-1;4.408286047E-1;4.842476892E-1;1.109491298E0
5.518697875E0;-7.952242523E-1;3.298578072E-1;3.806185095E-1;9.413066632E-1
5.528716875E0;-6.503612387E-1;1.362488955E-1;2.106832199E-1;6.970802834E-1
5.538734875E0;-5.011408800E-1;-5.548539877E-2;3.855654001E-3;5.042178866E-1
5.548752875E0;-4.496684253E-1;-2.299528652E-1;-1.957602485E-1;5.416660298E-1
5.558770875E0;-4.034865314E-1;-4.284541422E-1;-4.005763721E-1;7.119239867E-1
5.568788875E0;-3.415732884E-1;-6.094278055E-1;-5.509759681E-1;8.897466375E-1
5.578806875E0;-2.647057915E-1;-7.048064178E-1;-5.976996066E-1;9.612835494E-1
5.588825875E0;-2.062693030E-1;-7.223065495E-1;-5.585622919E-1;9.360905997E-1
5.598843875E0;-1.870267010E-1;-6.857602823E-1;-4.768186556E-1;8.559218317E-1
5.608861875E0;-1.738266116E-1;-5.870358932E-1;-3.951117106E-1;7.286563625E-1
5.618879875E0;-1.500798994E-1;-4.615300870E-1;-3.227173336E-1;5.828211345E-1
5.628897875E0;-1.394391364E-1;-3.152432764E-1;-2.566435044E-1;4.297528178E-1
5.638915875E0;-1.444086850E-1;-1.701089519E-1;-1.985901546E-1;2.987121915E-1
5.648934875E0;-1.166355801E-1;-9.797886908E-2;-1.330500300E-1;2.022523864E-1
5.658952875E0;-8.557341635E-2;-7.312469423E-2;-1.049313547E-1;1.538850860E-1
5.668970875E0;-1.022028977E-1;-5.879492283E-2;-7.154667690E-2;1.379173746E-1
5.678988875E0;-1.011644322E-1;-3.057158232E-2;-3.820219874E-2;1.123755844E-1
5.689006875E0;-6.104434669E-2;-2.388587594E-2;4.755321220E-2;8.098305577E-2
5.699024875E0;1.443268239E-2;-2.446533501E-2;1.370331533E-1;1.399462041E-1
5.709043875E0;3.324259043E-2;3.297186434E-2;1.123215044E-1;1.216894983E-1
5.719061875E0;1.677156866E-2;1.408132321E-1;-1.018234134E-2;1.421735978E-1
5.729079875E0;1.563779354E-2;2.201283735E-1;-9.263860703E-2;2.393385738E-1
5.739097875E0;4.308462381E-2;3.320265394E-1;-1.914623988E-1;3.856886800E-1
5.749119583E0;7.001572967E-2;4.461513251E-1;-3.802258690E-1;5.903599908E-1
5.759137583E0;1.318664074E-1;5.165313363E-1;-5.721443506E-1;7.820118469E-1
5.769156583E0;2.359497696E-1;5.324702615E-1;-6.851862319E-1;8.992647249E-1
5.779174583E0;3.683278084E-1;5.337239045E-1;-8.009423907E-1;1.030550966E0
5.789192583E0;4.707645947E-1;5.691089147E-1;-9.177278057E-1;1.178018924E0
5.799210583E0;5.590575510E-1;6.549659210E-1;-9.891350265E-1;1.311454842E0
5.809228583E0;6.175069034E-1;7.675429487E-1;-1.069719891E0;1.454213739E0
5.819246583E0;6.697891974E-1;8.970774865E-1;-1.154462564E0;1.608150925E0
5.829265583E0;7.131609195E-1;1.055959784E0;-1.167698760E0;1.728343125E0
5.839283583E0;7.156863320E-1;1.222072164E0;-1.136064885E0;1.815574488E0
5.849301583E0;7.053981560E-1;1.348288992E0;-1.142000539E0;1.902533836E0
5.859319583E0;6.973295832E-1;1.410785202E0;-1.127299324E0;1.935816933E0
5.869337583E0;6.978967631E-1;1.467582716E0;-1.090753056E0;1.957192160E0
5.879355583E0;6.760930806E-1;1.503519119E0;-1.075481152E0;1.968332112E0
5.889374583E0;6.669427729E-1;1.490105606E0;-1.060345781E0;1.946679366E0
5.899392583E0;6.748236501E-1;1.422337546E0;-1.048792267E0;1.891664948E0
5.909410583E0;6.875927997E-1;1.286019069E0;-1.028622297E0;1.784570742E0
5.919428583E0;6.958935070E-1;1.153669097E0;-1.025786982E0;1.693357343E0
5.929446583E0;7.403317612E-1;1.048079492E0;-9.973059256E-1;1.625171021E0
5.939464583E0;7.611466795E-1;9.581311888E-1;-1.043888354E0;1.608434810E0
5.949483583E0;8.401671213E-1;7.864931899E-1;-1.045295194E0;1.554700734E0
5.959501583E0;9.670096010E-1;4.671948695E-1;-8.887674236E-1;1.394017987E0
5.969519583E0;1.128542442E0;-2.217615008E-2;-6.391019864E-1;1.297131903E0
5.979537583E0;1.378917877E0;-6.634888226E-1;-4.248918723E-1;1.588132561E0
5.989555583E0;1.652454718E0;-1.324199633E0;-2.541112214E-1;2.132764351E0
5.999573583E0;1.974720501E0;-1.875673930E0;-5.578711510E-2;2.724111956E0
6.009592583E0;2.294033439E0;-2.289562658E0;7.502211571E-2;3.241961583E0
6.019610583E0;2.520593750E0;-2.456915233E0;1.586535987E-1;3.523492057E0
6.029628583E0;2.643501638E0;-2.248789439E0;2.858089775E-1;3.482361501E0
6.039646583E0;2.649017317E0;-1.666044817E0;4.656335168E-1;3.163828796E0
6.049664583E0;2.546625554E0;-8.908624810E-1;6.584350741E-1;2.777134210E0
6.059683583E0;2.347607383E0;-5.295940161E-2;8.055369135E-1;2.482529928E0
6.069701583E0;2.102855215E0;7.160079288E-1;8.430597389E-1;2.376008656E0
6.079719583E0;1.941358627E0;1.341784549E0;8.487262756E-1;2.507906575E0
6.089737583E0;1.831040964E0;1.839415931E0;7.813819925E-1;2.710483314E0
6.099755583E0;1.822397609E0;2.160209969E0;5.769897189E-1;2.884537622E0
6.109773583E0;1.776806869E0;2.324244248E0;2.555150648E-1;2.936740016E0
6.119792583E0;1.682217631E0;2.389964613E0;-3.934364833E-2;2.922898379E0
6.129810583E0;1.496900656E0;2.393219174E0;-2.573787186E-1;2.834511138E0
6.139828583E0;1.247280681E0;2.318735586E0;-4.612459123E-1;2.673011711E0
6.149846583E0;1.048720347E0;2.066527634E0;-6.813310164E-1;2.415483964E0
6.159864583E0;9.218550628E-1;1.660797526E0;-7.374572700E-1;2.037623224E0
6.169882583E0;8.612650448E-1;1.230355330E0;-5.909183713E-1;1.613919526E0
6.179901583E0;7.986489666E-1;8.136722177E-1;-4.291330770E-1;1.218219130E0
6.189919583E0;7.611402476E-1;4.470395172E-1;-2.020838660E-1;9.055477322E-1
6.199937583E0;6.854351771E-1;1.335697013E-1;1.110678979E-1;7.071055968E-1
6.209955583E0;5.456241578E-1;-1.689623129E-1;4.856703534E-1;7.497530773E-1
6.219973583E0;4.066568917E-1;-4.297288352E-1;8.537332463E-1;1.038699743E0
6.229991583E0;2.444720864E-1;-5.404634053E-1;1.180286207E0;1.320962840E0
6.240010583E0;6.031169057E-2;-4.909374887E-1;1.416193292E0;1.500086850E0
6.250028583E0;-1.242457312E-1;-3.261220211E-1;1.597421894E0;1.635099166E0
6.260046583E0;-3.581694406E-1;-5.141398251E-2;1.730896870E0;1.768313525E0
6.270064583E0;-5.692457396E-1;2.447878361E-1;1.704624746E0;1.813755033E0
6.280082583E0;-7.338062686E-1;5.072822106E-1;1.599042158E0;1.831049618E0
6.290100583E0;-8.988328207E-1;7.610379213E-1;1.498848363E0;1.906207117E0
6.300119583E0;-1.005374937E0;9.631241262E-1;1.392514408E0;1.969132607E0
6.310137583E0;-1.060031785E0;1.081523226E0;1.248256581E0;1.962524998E0
6.320155583E0;-1.073382733E0;1.116149268E0;1.003575164E0;1.845292061E0
6.330173583E0;-1.019681320E0;1.044136130E0;8.081530309E-1;1.668257046E0
6.340191583E0;-9.069253671E-1;9.730655622E-1;6.683180380E-1;1.488629977E0
6.350210583E0;-7.633522493E-1;8.840995914E-1;5.460586059E-1;1.289386965E0
6.360228583E0;-6.433761549E-1;7.795092756E-1;4.399842668E-1;1.102340121E0
6.370246583E0;-5.461340350E-1;6.965080494E-1;3.975416672E-1;9.702706963E-1
6.380264583E0;-3.964137393E-1;5.983379763E-1;3.950682950E-1;8.192869731E-1
6.390282583E0;-2.398755902E-1;4.851902604E-1;3.905425501E-1;6.674379155E-1
6.400300583E0;-7.222480774E-2;3.671297139E-1;3.725132453E-1;5.279836812E-1
6.410319583E0;6.604897857E-2;2.504929644E-1;3.713239217E-1;4.527589288E-1
6.420337583E0;1.643114376E-1;1.675917256E-1;4.163357878E-1;4.779338063E-1
6.430355583E0;2.492358130E-1;1.432573682E-1;4.693501532E-1;5.503914338E-1
6.440373583E0;3.060029215E-1;1.498740774E-1;4.984552538E-1;6.037861104E-1
6.450391583E0;3.494325310E-1;1.834049356E-1;5.152122045E-1;6.489869642E-1
6.460409583E0;3.720735347E-1;2.484499472E-1;4.381716299E-1;6.262271703E-1
6.470428583E0;3.666502422E-1;3.123120672E-1;3.787416995E-1;6.127124140E-1
6.480446583E0;3.825803965E-1;3.896555275E-1;3.418387520E-1;6.442460107E-1
6.490464583E0;3.873353523E-1;4.690554535E-1;2.654565740E-1;6.637084347E-1
6.500482583E0;3.717490143E-1;5.099766076E-1;1.225705040E-1;6.428817919E-1
6.510500583E0;3.840901476E-1;5.163582587E-1;-8.628745275E-3;6.436035644E-1
6.520519583E0;4.053295738E-1;5.167962152E-1;-8.733169237E-2;6.625686499E-1
6.530537583E0;3.983175927E-1;5.424912196E-1;-1.674607662E-1;6.935392824E-1
6.540555583E0;3.849116814E-1;5.419199467E-1;-2.744805819E-1;7.191479826E-1
6.550573583E0;3.894573069E-1;5.065910697E-1;-3.913003127E-1;7.492846191E-1
6.560591583E0;4.192453623E-1;4.590415120E-1;-4.838629425E-1;7.877874908E-1
6.570609583E0;4.424143696E-1;3.888000798E-1;-5.687539887E-1;8.187655807E-1
6.580628583E0;4.943142557E-1;2.995844328E-1;-6.238201421E-1;8.504404656E-1
6.590646583E0;5.726856565E-1;2.032772827E-1;-6.718444937E-1;9.059059215E-1
6.600664583E0;6.123344564E-1;1.534233373E-1;-7.036515927E-1;9.453135834E-1
6.610682583E0;6.385159492E-1;1.626911741E-1;-7.091906601E-1;9.680508396E-1
6.620700583E0;6.030110711E-1;2.426775759E-1;-7.160465205E-1;9.670767173E-1
6.630718583E0;5.432379091E-1;3.614421272E-1;-7.095602041E-1;9.639624062E-1
6.640737583E0;4.372694045E-1;4.730222046E-1;-7.470724314E-1;9.864439954E-1
6.650755583E0;4.182636148E-1;4.596390975E-1;-7.705987036E-1;9.899671274E-1
6.660773583E0;5.725844997E-1;2.557408404E-1;-6.537847835E-1;9.059199357E-1
6.670791583E0;7.976081622E-1;-2.467185867E-1;-4.688203955E-1;9.575183573E-1
6.680809583E0;9.996516824E-1;-8.834622449E-1;-2.943488359E-1;1.366180904E0
6.690828583E0;1.178096425E0;-1.377475369E0;-2.376899010E-1;1.828071680E0
6.700846583E0;1.302443313E0;-1.708286857E0;-1.350999177E-1;2.152406690E0
6.710864583E0;1.405940784E0;-1.970000628E0;1.192469648E-1;2.423178038E0
6.720882583E0;1.516941403E0;-2.217236694E0;4.170959258E-1;2.718679603E0
6.730900583E0;1.558390560E0;-2.384307432E0;6.342930901E-1;2.918189643E0
6.740918583E0;1.492769013E0;-2.300181786E0;7.915177023E-1;2.854066546E0
6.750933833E0;1.360773382E0;-1.902196900E0;9.532376540E-1;2.525612652E0
6.760951833E0;1.204210090E0;-1.243888126E0;1.051900063E0;2.025801904E0
6.770969833E0;1.057468366E0;-4.659418112E-1;1.045269320E0;1.558181333E0
6.780987833E0;8.817045718E-1;3.450792789E-1;9.533475816E-1;1.343634724E0
6.791005833E0;6.590133637E-1;1.168604640E0;8.132295835E-1;1.568846000E0
6.801024833E0;5.305605608E-1;1.946275551E0;6.384750187E-1;2.115923765E0
6.811042833E0;3.277288359E-1;2.640697314E0;4.155686331E-1;2.693211054E0
6.821060833E0;1.460932678E-1;3.198482510E0;1.435725331E-1;3.205034584E0
6.831078833E0;6.253363252E-2;3.518317605E0;-1.380305421E-1;3.521579427E0
6.841096833E0;2.521436334E-2;3.529889245E0;-3.524309832E-1;3.547528921E0
6.851114833E0;3.797766566E-3;3.310547322E0;-5.015332282E-1;3.348323995E0
6.861133833E0;3.176733792E-2;2.880791005E0;-5.558199477E-1;2.934093010E0
6.871151833E0;1.369365281E-1;2.232790872E0;-6.023281163E-1;2.316658337E0
6.881169833E0;2.948522812E-1;1.417557448E0;-5.357242370E-1;1.543828826E0
6.891187833E0;5.219715858E-1;5.979959142E-1;-3.406254548E-1;8.637587338E-1
6.901205833E0;7.645351410E-1;-1.659977746E-1;-1.594547403E-1;7.984328758E-1
6.911224833E0;9.584293967E-1;-7.891595203E-1;-3.493360063E-2;1.242006447E0
6.921242833E0;1.056446273E0;-1.225850635E0;5.420253793E-2;1.619174611E0
6.931260833E0;1.108673018E0;-1.492933905E0;2.165691551E-1;1.872140407E0
6.941278833E0;1.109486366E0;-1.545389276E0;4.708844260E-1;1.959826562E0
6.951296833E0;1.011004052E0;-1.383376964E0;7.551117682E-1;1.872446207E0
6.961314833E0;9.012711096E-1;-1.060375602E0;1.020279490E0;1.725588673E0
6.971333833E0;7.617121053E-1;-6.798756444E-1;1.261965963E0;1.623266557E0
6.981351833E0;6.452805930E-1;-3.349817222E-1;1.430991572E0;1.605097092E0
6.991369833E0;5.041071725E-1;1.037705362E-2;1.567225703E0;1.646337793E0
7.001387833E0;4.016078210E-1;2.818094820E-1;1.652541257E0;1.723832368E0
7.011405833E0;3.103105652E-1;4.753669381E-1;1.683144414E0;1.776299944E0
7.021424833E0;2.391943896E-1;6.151177311E-1;1.652640660E0;1.779551890E0
7.031442833E0;1.399992996E-1;7.198910648E-1;1.631152142E0;1.788435143E0
7.041460833E0;8.436421216E-2;7.728253233E-1;1.545870502E0;1.730344448E0
7.051478833E0;-5.130347013E-3;7.828591454E-1;1.313649502E0;1.529238299E0
7.061496833E0;-1.524714106E-1;7.575512266E-1;9.641298473E-1;1.235588020E0
7.071514833E0;-2.105184746E-1;6.810708153E-1;7.516139638E-1;1.035904935E0
7.081533833E0;-2.821006733E-1;6.739798969E-1;6.139541352E-1;9.543423764E-1
7.091551833E0;-3.539500898E-1;7.066377658E-1;4.562184763E-1;9.125529553E-1
7.101569833E0;-3.764946145E-1;7.285379273E-1;3.230832231E-1;8.814184450E-1
7.111587833E0;-4.129613596E-1;7.523238158E-1;2.247389030E-1;8.871503722E-1
7.121605833E0;-4.632526767E-1;8.129775685E-1;1.900204754E-1;9.548001626E-1
7.131624833E0;-4.877396464E-1;8.966085398E-1;2.075609529E-1;1.041574954E0
7.141642833E0;-4.859808040E-1;9.459947079E-1;2.414888370E-1;1.090596253E0
7.151660833E0;-4.636847860E-1;9.817521858E-1;2.641561532E-1;1.117416399E0
7.161678833E0;-4.162755615E-1;9.994283187E-1;2.729842794E-1;1.116540516E0
7.171696833E0;-4.229513276E-1;1.006716288E0;2.752869129E-1;1.126120950E0
7.181715833E0;-3.995238733E-1;1.060599550E0;3.438694900E-1;1.184371967E0
7.191733833E0;-3.624624664E-1;1.091185166E0;3.452131802E-1;1.200514992E0
7.201751833E0;-3.321569324E-1;1.082910771E0;3.215535915E-1;1.177463663E0
7.211769833E0;-2.861165410E-1;1.038259678E0;3.022291468E-1;1.118565282E0
7.221787833E0;-2.297008502E-1;9.403924906E-1;2.582680070E-1;1.001899636E0
7.231805833E0;-1.185949820E-1;7.663045084E-1;1.929218455E-1;7.990658345E-1
7.241824833E0;3.572064042E-2;5.487360460E-1;1.428205995E-1;5.681416513E-1
7.251842833E0;1.853894806E-1;3.259220463E-1;6.708391747E-2;3.809129714E-1
7.261860833E0;3.350951582E-1;9.932606757E-2;-1.212363521E-2;3.497161925E-1
7.271878833E0;4.494111478E-1;-6.334756494E-2;-4.605208576E-2;4.561842702E-1
7.281896833E0;5.410855490E-1;-1.451167828E-1;-5.663594808E-3;5.602361362E-1
7.291915833E0;6.139933115E-1;-1.231277436E-1;8.033489585E-2;6.313492879E-1
7.301933833E0;6.566616136E-1;2.285208821E-2;1.954349971E-1;6.855082281E-1
7.311951833E0;7.059898943E-1;2.296645975E-1;3.357810366E-1;8.148106913E-1
7.321969833E0;6.922962999E-1;4.739975202E-1;3.988935435E-1;9.290123116E-1
7.331987833E0;6.670702422E-1;6.940808702E-1;3.845503235E-1;1.036633934E0
7.342006833E0;7.127668172E-1;8.005884880E-1;3.764045308E-1;1.136071667E0
7.352024833E0;8.361319578E-1;6.856170255E-1;4.734478819E-1;1.180398345E0
7.362042833E0;1.008093892E0;3.428678620E-1;5.692147493E-1;1.207400968E0
7.372060833E0;1.215150231E0;-1.592226058E-1;6.072438705E-1;1.367730616E0
7.382078833E0;1.394963222E0;-7.001684064E-1;6.853240800E-1;1.704648727E0
7.392096833E0;1.565770331E0;-1.256889995E0;7.885256821E-1;2.157123534E0
7.402115833E0;1.752801710E0;-1.804512731E0;9.213796842E-1;2.679089501E0
7.412133833E0;1.962279380E0;-2.246814834E0;1.100501534E0;3.179594454E0
7.422151833E0;2.146991753E0;-2.503487720E0;1.220049028E0;3.516467543E0
7.432169833E0;2.277563587E0;-2.428910578E0;1.349868910E0;3.592916442E0
7.442187833E0;2.271679534E0;-1.993239802E0;1.427557940E0;3.342372583E0
7.452206833E0;2.182945113E0;-1.400910425E0;1.443829572E0;2.968575958E0
7.462224833E0;1.936365105E0;-7.907148796E-1;1.308165983E0;2.466989680E0
7.472242833E0;1.583873895E0;-8.870927811E-2;1.124934125E0;1.944737164E0
7.482260833E0;1.206227964E0;6.579819149E-1;9.696776855E-1;1.681725577E0
7.492278833E0;8.512084186E-1;1.266983458E0;8.844322979E-1;1.764092783E0
7.502297833E0;5.650749207E-1;1.627766020E0;8.511382520E-1;1.921813780E0
7.512315833E0;3.071548229E-1;1.746241134E0;9.511794341E-1;2.012074675E0
7.522333833E0;3.370335102E-2;1.689893271E0;1.121318207E0;2.028356404E0
7.532351833E0;-2.896792495E-1;1.501253323E0;1.224340884E0;1.958746080E0
7.542369833E0;-5.085551494E-1;1.121985374E0;1.277886761E0;1.774957491E0
7.552387833E0;-6.311741853E-1;6.169689596E-1;1.338380885E0;1.603213942E0
7.562406833E0;-7.893097937E-1;1.672245204E-1;1.360131943E0;1.581433809E0
7.572424833E0;-9.116230202E-1;-1.879189861E-1;1.264871444E0;1.570436196E0
7.582442833E0;-9.054916298E-1;-4.949790841E-1;1.154188914E0;1.548247860E0
7.592460833E0;-8.448343688E-1;-7.939975065E-1;1.022869806E0;1.546104716E0
7.602479833E0;-8.392263043E-1;-9.591105974E-1;8.479398251E-1;1.530750102E0
7.612497833E0;-8.996198559E-1;-9.263977647E-1;7.770540297E-1;1.507097100E0
7.622515833E0;-9.983804977E-1;-7.762722570E-1;8.838358819E-1;1.542896011E0
7.632533833E0;-1.071668329E0;-6.277898169E-1;1.060714155E0;1.633311845E0
7.642551833E0;-1.034367771E0;-5.356061232E-1;1.283636913E0;1.733353493E0
7.652569833E0;-8.827623332E-1;-4.930687988E-1;1.575665574E0;1.872193414E0
7.662588833E0;-7.574103087E-1;-4.260357338E-1;1.844471433E0;2.038933959E0
7.672606833E0;-7.278532183E-1;-3.383204824E-1;2.001871462E0;2.156784738E0
7.682624833E0;-6.851656204E-1;-2.585358095E-1;2.146532747E0;2.268015768E0
7.692642833E0;-6.165011823E-1;-1.814256531E-1;2.224883097E0;2.315835437E0
7.702660833E0;-5.505048287E-1;-1.366371506E-1;2.199078165E0;2.271050430E0
7.712679833E0;-4.767515588E-1;-7.164242506E-2;2.125936514E0;2.179915308E0
7.722697833E0;-4.126783544E-1;3.894888818E-2;1.993907554E0;2.036538184E0
7.732715833E0;-3.726681966E-1;1.451436800E-1;1.799751928E0;1.843652699E0
7.742733833E0;-3.562965775E-1;2.350919831E-1;1.591939545E0;1.648176873E0
7.752752208E0;-3.523134542E-1;2.843869346E-1;1.429434897E0;1.499428165E0
7.762771208E0;-3.305530411E-1;2.824257785E-1;1.311526963E0;1.381713649E0
7.772789208E0;-3.450085276E-1;2.667903239E-1;1.233264320E0;1.308108881E0
7.782807208E0;-3.921049261E-1;2.450877982E-1;1.184676370E0;1.271720253E0
7.792825208E0;-4.432756644E-1;2.137402904E-1;1.176284373E0;1.275077704E0
7.802843208E0;-5.270136398E-1;1.585168469E-1;1.211992149E0;1.331088253E0
7.812862208E0;-6.201562768E-1;6.232839525E-2;1.271198716E0;1.415777106E0
7.822880208E0;-7.224328494E-1;-2.082310438E-2;1.284033355E0;1.473460036E0
7.832898208E0;-8.177886575E-1;-8.854789495E-2;1.254551693E0;1.500172980E0
7.842916208E0;-9.432897860E-1;-1.068087494E-1;1.224701657E0;1.549547637E0
7.852934208E0;-1.099711576E0;-7.529225707E-2;1.160922568E0;1.600867166E0
7.862952208E0;-1.266325062E0;-9.093005061E-3;9.925379598E-1;1.608972792E0
7.872971208E0;-1.431979605E0;8.006767809E-2;8.337135494E-1;1.658931796E0
7.882989208E0;-1.556194931E0;1.827389377E-1;7.513789058E-1;1.737730256E0
7.893007208E0;-1.627047982E0;2.592327976E-1;6.135284579E-1;1.758096683E0
7.903025208E0;-1.634657548E0;2.355813950E-1;4.263146460E-1;1.705681116E0
7.913043208E0;-1.579479713E0;1.055352259E-1;2.723516107E-1;1.606259396E0
7.923062208E0;-1.512888697E0;-8.603827000E-2;1.478339930E-1;1.522527400E0
7.933080208E0;-1.428545535E0;-3.027881223E-1;2.090262651E-2;1.460431413E0
7.943098208E0;-1.286187469E0;-5.313376558E-1;-1.136733989E-1;1.396251965E0
7.953116208E0;-1.107474339E0;-7.767803800E-1;-2.329080663E-1;1.372637366E0
7.963134208E0;-8.990900981E-1;-9.966415358E-1;-3.673922904E-1;1.391630141E0
7.973153208E0;-7.424525464E-1;-1.136874139E0;-4.555858076E-1;1.432227992E0
7.983171208E0;-6.693225896E-1;-1.177119355E0;-5.292823595E-1;1.453871563E0
7.993189208E0;-5.952015299E-1;-1.128431929E0;-5.100812727E-1;1.373974667E0
8.003207208E0;-5.112249881E-1;-1.051821125E0;-4.240038629E-1;1.243968626E0
8.013225208E0;-3.917394751E-1;-1.131087735E0;-2.651034387E-1;1.226009426E0
8.023244208E0;-2.731526792E-1;-1.384791990E0;-5.994689740E-2;1.412747278E0
8.033262208E0;-1.203813064E-1;-1.718591405E0;9.570364438E-2;1.725458566E0
8.043280208E0;5.678348064E-2;-1.999298687E0;2.325285637E-1;2.013576206E0
8.053298208E0;2.158330089E-1;-2.183171400E0;3.951045112E-1;2.229109424E0
8.063316208E0;3.893795389E-1;-2.329724259E0;5.844157193E-1;2.433263915E0
8.073335208E0;6.177413768E-1;-2.525094936E0;7.049496746E-1;2.693448141E0
8.083353208E0;8.299198759E-1;-2.711735721E0;7.473174298E-1;2.932705400E0
8.093371208E0;9.763166142E-1;-2.696939927E0;7.305885458E-1;2.959803832E0
8.103389208E0;1.061081945E0;-2.343000947E0;6.259426814E-1;2.647140452E0
8.113407208E0;1.029909854E0;-1.720566595E0;5.050104942E-1;2.067873138E0
8.123426208E0;9.562594950E-1;-9.473775744E-1;4.179613137E-1;1.409485066E0
8.133444208E0;8.965208316E-1;-8.087283969E-2;2.961135256E-1;9.476144985E-1
8.143462208E0;7.941647369E-1;8.314132547E-1;1.260191917E-1;1.156644486E0
8.153480208E0;7.415994376E-1;1.649320026E0;-8.726421185E-3;1.808397751E0
8.163498208E0;7.636463642E-1;2.359812861E0;-1.167665577E-1;2.483043886E0
8.173517208E0;7.382852358E-1;2.991131473E0;-1.888685739E-1;3.086681699E0
8.183535208E0;7.385705799E-1;3.421168456E0;-2.785561643E-1;3.511050219E0
8.193553208E0;7.947746015E-1;3.582493136E0;-3.807602314E-1;3.689295609E0
8.203571208E0;8.482047039E-1;3.488395649E0;-4.871654499E-1;3.622938807E0
8.213589208E0;9.491574669E-1;3.077785454E0;-5.533606088E-1;3.268007216E0
8.223608208E0;1.132004578E0;2.406934987E0;-5.954335912E-1;2.725676349E0
8.233626208E0;1.198528935E0;1.612739845E0;-7.145426166E-1;2.132597610E0
8.243644208E0;1.234853008E0;6.798288667E-1;-7.789215573E-1;1.610511730E0
8.253662208E0;1.414400536E0;-3.351167929E-1;-7.420935273E-1;1.632033990E0
8.263680208E0;1.589606506E0;-1.269179673E0;-6.931383721E-1;2.148978056E0
8.273699208E0;1.597427741E0;-1.999596310E0;-6.413962877E-1;2.638474936E0
8.283717208E0;1.376750314E0;-2.471666588E0;-4.948072125E-1;2.872178847E0
8.293735208E0;1.071073667E0;-2.701899535E0;-2.151377932E-1;2.914402884E0
8.303753208E0;7.347546870E-1;-2.710166913E0;7.354044953E-2;2.808963749E0
8.313771208E0;3.955179459E-1;-2.505171719E0;4.809785110E-1;2.581406615E0
8.323790208E0;9.544410110E-2;-2.145083807E0;9.595655107E-1;2.351863109E0
8.333808208E0;-1.384632361E-1;-1.737607135E0;1.415426137E0;2.245413497E0
8.343826208E0;-3.213530320E-1;-1.289246147E0;1.708801997E0;2.164584871E0
8.353844208E0;-4.780952489E-1;-8.753205818E-1;1.853040528E0;2.104404996E0
8.363862208E0;-6.269910872E-1;-4.416325969E-1;1.928462008E0;2.075360906E0
8.373881208E0;-7.485172784E-1;-1.930984497E-2;1.853114203E0;1.998670367E0
8.383899208E0;-8.156836599E-1;2.562466246E-1;1.648630639E0;1.857144354E0
8.393917208E0;-9.010693806E-1;4.497456086E-1;1.380905346E0;1.709121621E0
8.403935208E0;-1.076371830E0;7.878415579E-1;9.666406417E-1;1.647320481E0
8.413953208E0;-1.211180556E0;1.156662287E0;3.558223683E-1;1.712143552E0
8.423972208E0;-1.217054669E0;1.320231128E0;-8.538922906E-2;1.797643907E0
8.433990208E0;-1.102993033E0;1.275339130E0;-3.152170004E-1;1.715355731E0
8.444008208E0;-9.836519462E-1;1.244823096E0;-5.838526690E-1;1.690573758E0
8.454026208E0;-8.687506503E-1;1.260554445E0;-6.680326939E-1;1.670327178E0
8.464044208E0;-7.398207146E-1;1.161278079E0;-5.134434583E-1;1.469532460E0
8.474063208E0;-6.503857970E-1;1.099719762E0;-2.886039466E-1;1.309838722E0
8.484081208E0;-6.033923095E-1;1.112277827E0;-9.890039027E-2;1.269261805E0
8.494099208E0;-5.803764993E-1;1.046779656E0;-2.524827719E-2;1.197172504E0
8.504117208E0;-6.265636557E-1;1.013480347E0;-1.088572484E-2;1.191571621E0
8.514135208E0;-7.012653440E-1;1.066837360E0;-3.398986459E-3;1.276685783E0
8.524154208E0;-7.288209325E-1;1.179100392E0;-5.006037036E-2;1.387070195E0
8.534172208E0;-6.561377031E-1;1.214075512E0;-7.234873217E-2;1.381929945E0
8.544190208E0;-4.943891001E-1;1.139068015E0;-5.553685427E-3;1.241743680E0
8.554208208E0;-2.771954441E-1;1.062023347E0;1.534250732E-1;1.108273503E0
8.564227208E0;-1.265150356E-1;1.113099360E0;2.743063166E-1;1.153360393E0
8.574245208E0;-4.007623136E-2;1.029585918E0;2.640450561E-1;1.063660218E0
8.584263208E0;-3.797708094E-2;8.434649509E-1;3.429335335E-2;8.450156307E-1
8.594281208E0;9.712459087E-2;5.587868249E-1;-9.397663269E-3;5.672426447E-1
8.604299208E0;2.455333561E-1;2.333372337E-1;-8.674461365E-2;3.496534306E-1
8.614317208E0;3.125143808E-1;7.481687844E-2;-2.519138195E-1;4.083177390E-1
8.624336208E0;3.534869903E-1;-3.712748051E-2;-3.377357608E-1;4.903029128E-1
8.634354208E0;4.143062192E-1;-1.626882505E-1;-2.986512355E-1;5.360127523E-1
8.644372208E0;4.920116222E-1;-2.739724588E-1;-2.378483788E-1;6.113167721E-1
8.654390208E0;6.086583120E-1;-3.960441953E-1;-1.395718682E-1;7.394567274E-1
8.664409208E0;9.472600454E-1;-5.794005990E-1;3.570547421E-2;1.110982236E0
8.674427208E0;1.349414581E0;-9.342125684E-1;1.307068680E-1;1.646437706E0
8.684445208E0;1.718402540E0;-1.464531054E0;2.488112869E-1;2.271489722E0
8.694463208E0;1.989932617E0;-1.871034164E0;3.252852845E-1;2.750711032E0
8.704481208E0;2.198837260E0;-2.150288413E0;2.649338694E-1;3.086877955E0
8.714500208E0;2.285928029E0;-2.241355289E0;2.621786066E-1;3.212145405E0
8.724518208E0;2.276716325E0;-2.050523804E0;3.446313822E-1;3.083318973E0
8.734536208E0;2.206114120E0;-1.697149081E0;4.452222025E-1;2.818772307E0
8.744554208E0;2.159305404E0;-1.480683988E0;4.587783873E-1;2.658101298E0
8.754571958E0;2.141117055E0;-1.284262565E0;4.812024593E-1;2.542689204E0
8.764590958E0;2.085983659E0;-9.750629711E-1;4.569049394E-1;2.347517358E0
8.774608958E0;2.010910088E0;-7.228450781E-1;4.296790973E-1;2.179653302E0
8.784626958E0;1.797472683E0;-4.846517318E-1;3.535717384E-1;1.894942828E0
8.794644958E0;1.439523683E0;-1.061901140E-1;2.084474273E-1;1.458408414E0
8.804662958E0;1.064392054E0;3.268757272E-1;-3.341683745E-2;1.113954609E0
8.814681958E0;6.072561496E-1;7.683791006E-1;-2.846629232E-1;1.019901688E0
8.824699958E0;1.765987766E-1;1.226761631E0;-4.599068999E-1;1.321985471E0
8.834717958E0;-1.933820397E-1;1.618032745E0;-7.883391559E-1;1.810222417E0
8.844735958E0;-5.561614251E-1;1.941551585E0;-1.042638073E0;2.272890723E0
8.854753958E0;-8.435795563E-1;2.073675855E0;-1.167768488E0;2.524963616E0
8.864772958E0;-1.017427218E0;2.069403879E0;-1.059030157E0;2.537545159E0
8.874790958E0;-1.070839194E0;1.837188141E0;-9.206581378E-1;2.317232887E0
8.884808958E0;-1.179414972E0;1.364252476E0;-8.342035460E-1;1.986982650E0
8.894826958E0;-1.279729804E0;7.771493393E-1;-6.256602609E-1;1.622689196E0
8.904844958E0;-1.409561380E0;2.694572389E-1;-3.766086352E-1;1.483679397E0
8.914863958E0;-1.522517892E0;-3.530350006E-1;3.727950811E-2;1.563356711E0
8.924881958E0;-1.593944555E0;-1.024563745E0;5.377169681E-1;1.969652164E0
8.934899958E0;-1.597886748E0;-1.472654591E0;9.457894707E-1;2.369909561E0
8.944917958E0;-1.585316404E0;-1.722542369E0;1.241604788E0;2.649898632E0
8.954936958E0;-1.471400363E0;-1.936504853E0;1.412073344E0;2.812298207E0
8.964954958E0;-1.247377160E0;-1.977558154E0;1.521613913E0;2.789622722E0
8.974972958E0;-9.327028173E-1;-1.789498250E0;1.455034007E0;2.487842940E0
8.984990958E0;-2.975706518E-1;-1.253063577E0;1.090770013E0;1.687748750E0
8.995008958E0;-3.563135344E-1;-1.775698237E0;1.213335840E0;2.179965005E0
9.005027958E0;-4.874484551E-1;-1.855186456E0;2.268810890E0;2.970997414E0
9.015045958E0;-1.229844868E-1;-7.966767007E-1;2.351375914E0;2.485716725E0
9.025063958E0;-4.293388259E-1;-2.317251563E-3;1.366922314E0;1.432764394E0
9.035081958E0;-4.879729503E-1;-1.713082159E-1;9.373659718E-1;1.070569507E0
9.045099958E0;-3.807449555E-1;-2.304054397E-1;8.711754906E-1;9.782638311E-1
9.055118958E0;-5.412656432E-1;2.037058836E-1;8.376803005E-1;1.017925768E0
9.065136958E0;-6.607435548E-1;5.470333368E-1;8.557318246E-1;1.211653611E0
9.075154958E0;-6.349678588E-1;6.523791128E-1;9.977887595E-1;1.350690600E0
9.085172958E0;-5.793590838E-1;6.750803429E-1;1.181130618E0;1.478668304E0
9.095190958E0;-5.887467885E-1;6.335200882E-1;1.283798296E0;1.547936869E0
9.105209958E0;-6.492292178E-1;5.472414976E-1;1.369435447E0;1.611311664E0
9.115227958E0;-7.406428331E-1;4.214351445E-1;1.393986737E0;1.633817128E0
9.125245958E0;-8.164233327E-1;2.739736283E-1;1.363362529E0;1.612565035E0
9.135263958E0;-8.645266217E-1;1.195726365E-1;1.274259149E0;1.544487058E0
9.145282958E0;-8.555710262E-1;5.314943612E-2;1.115766860E0;1.407040273E0
9.155300958E0;-6.688197291E-1;1.259911251E-1;6.563873792E-1;9.455358191E-1
9.165318958E0;-8.349929202E-1;5.991115630E-2;5.134369898E-1;9.820489121E-1
9.175336958E0;-1.103557289E0;-3.505873561E-2;4.091869819E-1;1.177498107E0
9.185354958E0;-1.314865723E0;4.290511429E-2;2.263901567E-1;1.334902701E0
9.195373958E0;-1.437585915E0;1.588869756E-1;1.335539138E-1;1.452492679E0
9.205391958E0;-1.497832117E0;2.986225659E-1;2.951498816E-2;1.527595373E0
9.215409958E0;-1.593842229E0;4.335230935E-1;-1.266033286E-1;1.656594013E0
9.225427958E0;-1.679320335E0;4.464010012E-1;-2.853990877E-1;1.760921146E0
9.235445958E0;-1.639470976E0;3.591348159E-1;-3.340508455E-1;1.711266450E0
9.245464958E0;-1.554914390E0;2.250803804E-1;-3.408844864E-1;1.607676016E0
9.255482958E0;-1.390323456E0;2.542954087E-2;-3.630021644E-1;1.437155714E0
9.265500958E0;-1.158956149E0;-2.302101427E-1;-3.761221468E-1;1.240017716E0
9.275518958E0;-9.166984034E-1;-5.389922458E-1;-4.243488121E-1;1.144954374E0
9.285536958E0;-7.488412142E-1;-8.453997946E-1;-4.766106043E-1;1.225814686E0
9.295555958E0;-6.637227112E-1;-1.058078815E0;-4.549367666E-1;1.329295332E0
9.305573958E0;-6.087173688E-1;-1.209238111E0;-3.458166128E-1;1.397276914E0
9.315591958E0;-5.336040366E-1;-1.177225190E0;-3.039241998E-1;1.327765919E0
9.325609958E0;-4.767088741E-1;-9.835969824E-1;-2.413017261E-1;1.119348425E0
9.335628958E0;-3.700153148E-1;-8.470223969E-1;-1.982352287E-1;9.453335284E-1
9.345646958E0;-1.869647205E-1;-9.657840246E-1;-2.767686156E-1;1.021907753E0
9.355664958E0;2.017704552E-1;-1.432616951E0;-3.375533277E-1;1.485612633E0
9.365682958E0;6.336569130E-1;-2.090775452E0;-2.975186116E-1;2.204853827E0
9.375700958E0;9.507063943E-1;-2.640151184E0;-2.437195498E-1;2.816671820E0
9.385719958E0;1.136834378E0;-2.891804820E0;-2.611015312E-1;3.118188822E0
9.395737958E0;1.213756839E0;-2.861075948E0;-2.064324403E-1;3.114735237E0
9.405755958E0;1.254483281E0;-2.751437731E0;-1.341760758E-1;3.026902890E0
9.415773958E0;1.345975249E0;-2.672521954E0;-4.684440175E-2;2.992693998E0
9.425791958E0;1.361760392E0;-2.395874394E0;6.213485241E-2;2.756531556E0
9.435810958E0;1.229380015E0;-1.707685763E0;1.859613200E-1;2.112379582E0
9.445828958E0;9.589924836E-1;-6.564195389E-1;2.981927772E-1;1.199780033E0
9.455846958E0;6.703949690E-1;4.518313104E-1;3.750088370E-1;8.911860498E-1
9.465864958E0;4.413694721E-1;1.404409983E0;4.308567631E-1;1.533887858E0
9.475883958E0;2.720434624E-1;2.073955352E0;3.648241933E-1;2.123298175E0
9.485901958E0;2.700858146E-1;2.416776436E0;2.989681363E-1;2.450129922E0
9.495919958E0;3.797743177E-1;2.451360962E0;3.045802939E-1;2.499233534E0
9.505937958E0;4.026784462E-1;2.256713001E0;3.191229039E-1;2.314463853E0
9.515955958E0;4.698009735E-1;1.866239448E0;2.455492166E-1;1.940066248E0
9.525974958E0;6.104978460E-1;1.245778531E0;1.403214812E-1;1.394403774E0
9.535992958E0;6.647798878E-1;5.349991822E-1;7.882638730E-2;8.569539215E-1
9.546010958E0;6.820864767E-1;-1.192083549E-1;1.029102646E-2;6.925016237E-1
9.556028958E0;7.469642580E-1;-7.941249758E-1;-6.541397095E-2;1.092185455E0
9.566047958E0;8.077805632E-1;-1.379432432E0;-1.578783675E-1;1.606321528E0
9.576065958E0;7.991062188E-1;-1.710264970E0;-3.387350865E-1;1.917894282E0
9.586083958E0;7.333402455E-1;-1.838905469E0;-4.975852612E-1;2.041311424E0
9.596101958E0;6.148949522E-1;-1.864330916E0;-6.369980852E-1;2.063877935E0
9.606119958E0;4.811632830E-1;-1.715635053E0;-7.565419972E-1;1.935788608E0
9.616138958E0;2.619961917E-1;-1.313584598E0;-8.016444951E-1;1.561019025E0
9.626156958E0;1.171688461E-1;-8.990216857E-1;-7.015939575E-1;1.146386763E0
9.636174958E0;9.138613343E-2;-4.958538276E-1;-5.273604162E-1;7.296104799E-1
9.646192958E0;-3.374428153E-3;-3.710935414E-2;-4.351521277E-1;4.367446224E-1
9.656210958E0;-2.159183782E-1;3.719788098E-1;-3.674758691E-1;5.657097271E-1
9.666229958E0;-3.466363925E-1;6.619784868E-1;-2.540357193E-1;7.892442285E-1
9.676247958E0;-3.942871070E-1;8.708638340E-1;-1.728325119E-1;9.714613823E-1
9.686265958E0;-4.484375864E-1;1.019663778E0;-1.733336914E-1;1.127322074E0
9.696283958E0;-5.208840036E-1;1.104796899E0;-2.628136325E-1;1.249386785E0
9.706302958E0;-6.384317493E-1;1.119620760E0;-4.093494614E-1;1.352299052E0
9.716320958E0;-7.358177108E-1;1.065846257E0;-5.086726785E-1;1.391475418E0
9.726338958E0;-7.630926329E-1;9.526429921E-1;-5.661216453E-1;1.345486066E0
9.736356958E0;-7.419765830E-1;8.368476570E-1;-6.368951011E-1;1.287042587E0
9.746374958E0;-7.264311755E-1;7.227217019E-1;-6.516107887E-1;1.214341604E0
9.756393958E0;-7.473864269E-1;6.728268260E-1;-6.389733477E-1;1.191456818E0
9.766411958E0;-7.973859680E-1;6.838289469E-1;-6.813970900E-1;1.252097602E0
9.776429958E0;-8.279318225E-1;6.955841893E-1;-6.899282507E-1;1.282696168E0
9.786447958E0;-8.190575033E-1;7.317141348E-1;-6.563978311E-1;1.279499465E0
9.796466958E0;-7.847349322E-1;8.267629641E-1;-6.697096753E-1;1.322065415E0
9.806484958E0;-7.889542830E-1;9.387225258E-1;-7.125452077E-1;1.418227596E0
9.816502958E0;-7.705150884E-1;1.040569913E0;-7.179164600E-1;1.480501026E0
9.826520958E0;-7.561625129E-1;1.153722306E0;-6.946626681E-1;1.544478271E0
9.836538958E0;-7.782644033E-1;1.236332939E0;-7.286496091E-1;1.632527142E0
9.846557958E0;-7.312715006E-1;1.206138502E0;-7.752049939E-1;1.609493981E0
9.856575958E0;-5.746386266E-1;1.047816367E0;-8.036284554E-1;1.440120615E0
9.866593958E0;-4.461092252E-1;8.103071451E-1;-8.420108215E-1;1.250837053E0
9.876611958E0;-3.295215923E-1;5.716986465E-1;-8.828957959E-1;1.102238091E0
9.886630958E0;-1.421417195E-1;3.127120167E-1;-9.110641725E-1;9.736688350E-1
9.896648958E0;5.471356630E-2;6.373406589E-2;-9.417842010E-1;9.455226527E-1
9.906666958E0;2.607846487E-1;-1.390485424E-1;-9.461987758E-1;9.912796040E-1
9.916684958E0;4.175613642E-1;-3.035704798E-1;-9.576663351E-1;1.087950982E0
9.926702958E0;5.521373713E-1;-4.454069746E-1;-9.886723655E-1;1.216846784E0
9.936721958E0;6.351567239E-1;-5.192830360E-1;-9.859439085E-1;1.282639593E0
9.946739958E0;6.896913654E-1;-5.222323716E-1;-9.034849385E-1;1.250874040E0
9.956757958E0;7.150489855E-1;-4.611570346E-1;-8.182100956E-1;1.180435777E0
9.966775958E0;6.961595553E-1;-3.895251346E-1;-7.297126329E-1;1.081132963E0
9.976793958E0;7.092888933E-1;-4.583018392E-1;-6.502630786E-1;1.065820520E0
9.986812958E0;8.414704657E-1;-8.150316954E-1;-5.560971057E-1;1.296762584E0
9.996830958E0;1.090460696E0;-1.511428648E0;-5.655521996E-1;1.947657664E0
1.000684896E1;1.356794352E0;-2.347622001E0;-6.668211508E-1;2.792287668E0
1.001686696E1;1.567390594E0;-3.090744638E0;-7.010566715E-1;3.535660639E0
1.002688596E1;1.651581729E0;-3.505223351E0;-6.267187531E-1;3.925186536E0
1.003690396E1;1.571857867E0;-3.472398836E0;-4.781152026E-1;3.841469117E0
1.004692196E1;1.380656839E0;-3.024392189E0;-3.506539413E-1;3.343070386E0
1.005693996E1;1.143834665E0;-2.395439946E0;-2.000473539E-1;2.662049815E0
1.006695796E1;9.841156304E-1;-1.630630571E0;4.206837773E-2;1.905048393E0
1.007697696E1;7.444482011E-1;-7.574927545E-1;1.046276649E-1;1.067213824E0
1.008699496E1;5.013928950E-1;-1.954139471E-2;3.960311852E-2;5.033339927E-1
1.009701296E1;3.506926060E-1;4.525826776E-1;6.714942455E-2;5.764767378E-1
1.010703096E1;2.094291383E-1;7.126867104E-1;8.984414957E-2;7.482345102E-1
1.011704996E1;1.237954956E-1;8.062597024E-1;4.932945013E-2;8.171985237E-1
1.012706796E1;2.525295496E-2;6.508056271E-1;-1.838371910E-2;6.515547844E-1
1.013708596E1;-1.153351593E-1;3.282550853E-1;-1.411454270E-1;3.754672177E-1
1.014710396E1;-3.193544537E-1;-1.443665850E-1;-3.283164811E-1;4.802298301E-1
1.015712196E1;-4.234506798E-1;-7.709776032E-1;-3.999916506E-1;9.662868432E-1
1.016714096E1;-4.958070499E-1;-1.309638312E0;-3.911150656E-1;1.453942273E0
1.017715896E1;-6.254053223E-1;-1.755030084E0;-3.954800121E-1;1.904643497E0
1.018717696E1;-7.618424982E-1;-2.107402595E0;-4.169270144E-1;2.279337146E0
1.019719496E1;-9.712903476E-1;-2.281720957E0;-3.910583476E-1;2.510494393E0
1.020721396E1;-1.222686122E0;-2.274444097E0;-2.776813477E-1;2.597145401E0
1.021723196E1;-1.494476985E0;-2.172409599E0;-1.088365638E-1;2.639066184E0
1.022724996E1;-1.766187156E0;-2.087853014E0;6.410057668E-2;2.735444417E0
1.023726796E1;-1.963268144E0;-2.005517201E0;2.230512870E-1;2.815363729E0
1.024728596E1;-2.082157241E0;-1.900859642E0;4.141617930E-1;2.849592277E0
1.025730496E1;-2.169387174E0;-1.803206463E0;5.974568009E-1;2.883530629E0
1.026732296E1;-2.229407088E0;-1.733726923E0;7.427297044E-1;2.920224721E0
1.027734096E1;-2.267822710E0;-1.674011064E0;8.491512951E-1;2.943873436E0
1.028735896E1;-2.319029701E0;-1.628853602E0;8.890182692E-1;2.970086917E0
1.029737796E1;-2.362590873E0;-1.540734308E0;8.403092086E-1;2.943096568E0
1.030739596E1;-2.398570545E0;-1.428851929E0;7.640404665E-1;2.894566691E0
1.031741396E1;-2.421829015E0;-1.308575873E0;5.756303144E-1;2.812290321E0
1.032743196E1;-2.420410480E0;-1.184016731E0;3.590786827E-1;2.718311979E0
1.033745096E1;-2.415427483E0;-1.064692601E0;1.700562904E-1;2.645142606E0
1.034746896E1;-2.394396803E0;-9.425606382E-1;2.415302061E-2;2.573351895E0
1.035748696E1;-2.366803792E0;-8.340936184E-1;-6.597011425E-2;2.510343485E0
1.036750496E1;-2.366185741E0;-7.304043585E-1;-1.375955093E-1;2.480172981E0
1.037752296E1;-2.345468472E0;-6.545349813E-1;-1.904460796E-1;2.442520850E0
1.038754196E1;-2.303593052E0;-5.962271315E-1;-1.940954000E-1;2.387404609E0
1.039755996E1;-2.236154775E0;-6.148171842E-1;-2.110523254E-1;2.328718839E0
1.040757796E1;-2.132809916E0;-6.850422442E-1;-2.142799884E-1;2.250350401E0
1.041759596E1;-2.028566925E0;-7.279052585E-1;-2.168679661E-1;2.166093615E0
1.042761396E1;-1.910447322E0;-6.890113342E-1;-1.830763221E-1;2.039132788E0
1.043763296E1;-1.842000400E0;-6.346895313E-1;-1.784323903E-1;1.956434101E0
1.044765096E1;-1.779632244E0;-5.932468057E-1;-1.602394366E-1;1.882739858E0
1.045766896E1;-1.738238050E0;-5.344992453E-1;-1.946081277E-1;1.828943215E0
1.046768696E1;-1.696860813E0;-4.593707103E-1;-2.184379435E-1;1.771460754E0
1.047770596E1;-1.679265372E0;-3.944479054E-1;-2.403995007E-1;1.741640967E0
1.048772396E1;-1.697592300E0;-3.596639889E-1;-3.046598160E-1;1.761815939E0
1.049774196E1;-1.677722291E0;-3.363657582E-1;-3.329516055E-1;1.743201303E0
1.050775996E1;-1.626259192E0;-3.950495839E-1;-3.735704219E-1;1.714741378E0
1.051777896E1;-1.572243199E0;-5.598872709E-1;-4.767562366E-1;1.735718566E0
1.052779696E1;-1.474011145E0;-8.028724104E-1;-4.936886402E-1;1.749583218E0
1.053781496E1;-1.318391009E0;-1.133019070E0;-5.068320115E-1;1.810736246E0
1.054783296E1;-1.171885512E0;-1.502015800E0;-5.146649782E-1;1.973384696E0
1.055785096E1;-1.087410788E0;-1.793216495E0;-5.174371066E-1;2.160052957E0
1.056786996E1;-9.710330701E-1;-1.988345098E0;-4.379038274E-1;2.255699717E0
1.057788796E1;-9.441943502E-1;-2.071012448E0;-3.279527478E-1;2.299597473E0
1.058790596E1;-9.835700852E-1;-2.008715043E0;-1.915092130E-1;2.244776607E0
1.059792396E1;-9.782116967E-1;-1.844479619E0;-7.301597256E-2;2.089098974E0
1.060794296E1;-9.749922198E-1;-1.633174109E0;2.943842847E-2;1.902297064E0
1.061796096E1;-9.676796919E-1;-1.328375714E0;1.235113209E-1;1.648102264E0
1.062797896E1;-9.458140290E-1;-1.047070262E0;1.239217955E-1;1.416431051E0
1.063799696E1;-8.056469142E-1;-1.074917627E0;9.372385025E-2;1.346587916E0
1.064801596E1;-5.430654162E-1;-1.457479897E0;7.444674969E-2;1.557148039E0
1.065803396E1;-2.876876879E-1;-2.019632964E0;9.279531240E-2;2.042129400E0
1.066805196E1;-8.882797658E-2;-2.573235648E0;8.247965455E-2;2.576089090E0
1.067806996E1;-8.029571950E-2;-2.897093042E0;8.838649353E-2;2.899553012E0
1.068808796E1;-2.197728628E-1;-2.873855622E0;1.922178956E-1;2.888649160E0
1.069810696E1;-4.595759475E-1;-2.636449311E0;3.656608933E-1;2.701070697E0
1.070812496E1;-6.768999964E-1;-2.363581976E0;5.537161195E-1;2.520181522E0
1.071814296E1;-7.515391195E-1;-2.139988543E0;7.221568608E-1;2.380309338E0
1.072816096E1;-7.846448851E-1;-1.973481476E0;8.668193150E-1;2.293833572E0
1.073817996E1;-7.519449162E-1;-1.848939291E0;9.871854186E-1;2.226776304E0
1.074819796E1;-6.873144722E-1;-1.737777874E0;1.118290519E0;2.177807798E0
1.075821625E1;-7.163441437E-1;-1.610064159E0;1.251739182E0;2.161551875E0
1.076823425E1;-7.275409770E-1;-1.491069812E0;1.343558010E0;2.134889502E0
1.077825225E1;-7.321895134E-1;-1.423552013E0;1.402454674E0;2.128257722E0
1.078827125E1;-8.023245263E-1;-1.360654684E0;1.376545077E0;2.095228427E0
1.079828925E1;-8.847521406E-1;-1.295471093E0;1.308713282E0;2.042978747E0
1.080830725E1;-1.041652817E0;-1.202987437E0;1.163331621E0;1.971182342E0
1.081832525E1;-1.224802229E0;-1.118285841E0;9.367929447E-1;1.904805697E0
1.082834425E1;-1.311236941E0;-1.140601739E0;6.726660275E-1;1.863543460E0
1.083836225E1;-1.310375061E0;-1.165389841E0;5.042299640E-1;1.824681928E0
1.084838025E1;-1.325104197E0;-1.129466887E0;4.271104521E-1;1.792768786E0
1.085839825E1;-1.358482443E0;-1.098442145E0;2.572921250E-1;1.765856430E0
1.086841725E1;-1.389208977E0;-1.055947505E0;9.344552279E-2;1.747472111E0
1.087843525E1;-1.410772339E0;-1.002277667E0;-4.893770495E-2;1.731252151E0
1.088845325E1;-1.431059838E0;-9.079533076E-1;-1.392017942E-1;1.700496577E0
1.089847125E1;-1.471227871E0;-8.223500705E-1;-2.113926699E-1;1.698663577E0
1.090848925E1;-1.527516677E0;-7.226521200E-1;-2.729860701E-1;1.711740249E0
1.091850825E1;-1.588607801E0;-6.282184178E-1;-2.931051332E-1;1.733275438E0
1.092852625E1;-1.663296041E0;-6.042167670E-1;-2.290448109E-1;1.784402742E0
1.093854425E1;-1.680303837E0;-6.891452354E-1;-9.328883568E-2;1.818528237E0
1.094856225E1;-1.610727818E0;-8.433591163E-1;8.127278924E-2;1.819973618E0
1.095858125E1;-1.549096411E0;-9.848898017E-1;2.952890682E-1;1.859274925E0
1.096859925E1;-1.530906308E0;-1.082951117E0;5.007263124E-1;1.940923513E0
1.097861725E1;-1.554261256E0;-1.166895499E0;6.725280333E-1;2.056615451E0
1.098863525E1;-1.572420369E0;-1.231500215E0;8.086868817E-1;2.154779123E0
1.099865425E1;-1.615122585E0;-1.281734814E0;9.294236988E-1;2.261701464E0
1.100867225E1;-1.659160890E0;-1.283834549E0;1.027828245E0;2.336124335E0
1.101869025E1;-1.749857637E0;-1.202932473E0;1.082774531E0;2.383579025E0
1.102870825E1;-1.841296980E0;-1.078070446E0;1.092770931E0;2.397239821E0
1.103872625E1;-1.891487725E0;-9.693268526E-1;1.123744801E0;2.404188582E0
1.104874525E1;-1.868278956E0;-8.630449373E-1;1.174814383E0;2.369704973E0
1.105876325E1;-1.796195651E0;-8.234125096E-1;1.183994511E0;2.303512531E0
1.106878125E1;-1.675290434E0;-8.169700474E-1;1.227929320E0;2.232005491E0
1.107879925E1;-1.503430241E0;-8.310992593E-1;1.257416829E0;2.128878942E0
1.108881825E1;-1.291273377E0;-8.702767736E-1;1.244653527E0;1.993472096E0
1.109883625E1;-1.103350883E0;-9.282981098E-1;1.167611783E0;1.855380776E0
1.110885425E1;-9.203792256E-1;-1.002086463E0;1.073144166E0;1.732891687E0
1.111887225E1;-7.170844012E-1;-1.068071707E0;9.664851058E-1;1.609062046E0
1.112889125E1;-5.001760894E-1;-1.168483018E0;8.583677495E-1;1.533728749E0
1.113890925E1;-2.595017695E-1;-1.281330187E0;7.592130053E-1;1.511804420E0
1.114892725E1;-1.138236541E-1;-1.226110252E0;6.251071143E-1;1.380963822E0
1.115894525E1;-4.770100057E-2;-1.044308038E0;5.073476994E-1;1.162005315E0
1.116896325E1;7.832403839E-2;-8.942281383E-1;6.192657459E-1;1.090535961E0
1.117898225E1;2.175550139E-1;-6.957368016E-1;8.009001446E-1;1.082968570E0
1.118900025E1;3.633518279E-1;-4.149453199E-1;9.337991703E-1;1.084520659E0
1.119901825E1;3.950513381E-1;-1.020175409E-1;1.010691226E0;1.089940316E0
1.120903625E1;4.359590435E-1;1.805602652E-1;1.130787188E0;1.225292602E0
1.121905525E1;5.526302916E-1;3.978778821E-1;1.226861619E0;1.403173717E0
1.122907325E1;6.194622123E-1;5.926767021E-1;1.273711849E0;1.535363469E0
1.123909125E1;6.418851149E-1;7.188110840E-1;1.259943995E0;1.586242336E0
1.124910925E1;7.430004305E-1;7.902383316E-1;1.238322161E0;1.646198055E0
1.125912825E1;8.901409346E-1;8.432702386E-1;1.245813614E0;1.748000898E0
1.126914625E1;1.024789447E0;7.990249425E-1;1.245686145E0;1.800102286E0
1.127916425E1;1.094465454E0;7.647848171E-1;1.289711001E0;1.856368743E0
1.128918225E1;1.116535184E0;7.907242352E-1;1.261847849E0;1.861224228E0
1.129920125E1;1.125413597E0;8.326201200E-1;1.188295723E0;1.836262169E0
1.130921925E1;1.132185257E0;8.743552065E-1;1.109849478E0;1.810554155E0
1.131923725E1;1.113610407E0;9.163674510E-1;9.970379770E-1;1.753266144E0
1.132925525E1;1.118048444E0;9.892366219E-1;9.053548050E-1;1.745934918E0
1.133927325E1;1.129401398E0;1.156620187E0;1.057003512E0;1.931469440E0
1.134929225E1;1.111861505E0;1.362823416E0;1.117394725E0;2.083769335E0
1.135931025E1;1.123813214E0;1.547789558E0;1.104306318E0;2.208642366E0
1.136932825E1;1.149394782E0;1.704285607E0;1.160481688E0;2.360596438E0
1.137934625E1;1.213324145E0;1.869563005E0;1.258236609E0;2.559410220E0
1.138936525E1;1.302874838E0;2.027990974E0;1.317536731E0;2.747022619E0
1.139938325E1;1.393376287E0;2.152561226E0;1.320662652E0;2.884296647E0
1.140940125E1;1.509054093E0;2.195732388E0;1.294551326E0;2.962152615E0
1.141941925E1;1.697219832E0;2.120498019E0;1.316049199E0;3.018120690E0
1.142943825E1;1.939195742E0;1.856974534E0;1.292684895E0;2.979910869E0
1.143945625E1;2.230906314E0;1.428716274E0;1.186593014E0;2.902787652E0
1.144947425E1;2.536399943E0;9.488165742E-1;9.988599694E-1;2.886398933E0
1.145949225E1;2.802644137E0;5.126242268E-1;8.395163262E-1;2.970250060E0
1.146951025E1;3.020817202E0;2.504175353E-1;7.254909432E-1;3.116790435E0
1.147952925E1;3.169810104E0;3.102415681E-1;6.594150674E-1;3.252502753E0
1.148954725E1;3.177322606E0;6.950351357E-1;5.989092493E-1;3.307135479E0
1.149956525E1;3.027480689E0;1.258938274E0;5.149841630E-1;3.319001896E0
1.150958325E1;2.771349254E0;1.896261392E0;5.648924875E-1;3.405185381E0
1.151960225E1;2.586047482E0;2.377087290E0;6.133156192E-1;3.565717545E0
1.152962025E1;2.500154808E0;2.560196941E0;5.771880126E-1;3.624710808E0
1.153963825E1;2.498237506E0;2.422804915E0;6.224425381E-1;3.535337184E0
1.154965625E1;2.534755706E0;2.099375537E0;6.787845540E-1;3.360522669E0
1.155967525E1;2.559389441E0;1.659377237E0;6.509272492E-1;3.118928247E0
1.156969325E1;2.514692740E0;1.165485150E0;6.018410432E-1;2.836238328E0
1.157971125E1;2.371831813E0;6.733595073E-1;5.382859021E-1;2.523638422E0
1.158972925E1;2.317666715E0;1.289644343E-1;5.300360656E-1;2.380997493E0
1.159974825E1;2.196530533E0;-3.073793560E-1;5.774201471E-1;2.291864411E0
1.160976625E1;2.025998243E0;-6.575749487E-1;6.334873438E-1;2.222246590E0
1.161978425E1;1.858764952E0;-9.449831396E-1;6.440146708E-1;2.182373748E0
1.162980225E1;1.653118377E0;-1.160489289E0;7.003292048E-1;2.137755074E0
1.163982125E1;1.455003601E0;-1.282603126E0;7.998043764E-1;2.098045113E0
1.164983925E1;1.254414284E0;-1.295044831E0;8.930499244E-1;2.012022484E0
1.165985725E1;1.084677215E0;-1.217047652E0;1.041279180E0;1.934422906E0
1.166987525E1;9.226228023E-1;-1.066257901E0;1.178334407E0;1.837555637E0
1.167989325E1;7.739520818E-1;-9.029258716E-1;1.285044923E0;1.750890462E0
1.168991225E1;5.771032280E-1;-6.948047554E-1;1.379215500E0;1.648647076E0
1.169993025E1;3.513410622E-1;-4.498350710E-1;1.449622993E0;1.557947033E0
1.170994825E1;1.134190267E-1;-1.921862841E-1;1.444995507E0;1.462125664E0
1.171996625E1;-1.543261474E-1;1.800650060E-2;1.392158897E0;1.400802337E0
1.172998525E1;-4.384780240E-1;2.067628080E-1;1.287682017E0;1.375913810E0
1.174000325E1;-6.918618518E-1;3.572274542E-1;1.099789928E0;1.347524457E0
1.175002125E1;-9.097168279E-1;4.193997288E-1;9.211171442E-1;1.360859152E0
1.176003883E1;-1.110354093E0;4.489995039E-1;7.406410789E-1;1.408203101E0
1.177005783E1;-1.261577123E0;4.915473533E-1;6.193628097E-1;1.488894196E0
1.178007583E1;-1.396120970E0;5.273925394E-1;5.532471728E-1;1.591659225E0
1.179009383E1;-1.532608432E0;5.164810503E-1;4.473038113E-1;1.678011317E0
1.180011183E1;-1.651195228E0;4.841044325E-1;3.354009676E-1;1.753082027E0
1.181013083E1;-1.747681303E0;4.891038018E-1;2.722311215E-1;1.835135485E0
1.182014883E1;-1.823955892E0;4.760393679E-1;1.949630902E-1;1.895109280E0
1.183016683E1;-1.881856776E0;4.269590092E-1;9.585336965E-2;1.932062833E0
1.184018483E1;-1.884124911E0;3.817220253E-1;6.118599549E-3;1.922414061E0
1.185020283E1;-1.849593009E0;3.652176744E-1;2.614874840E-3;1.885307690E0
1.186022183E1;-1.790601035E0;3.117279303E-1;-3.244736910E-2;1.817822654E0
1.187023983E1;-1.701466080E0;2.380237770E-1;-3.602177203E-2;1.718411973E0
1.188025783E1;-1.551076863E0;1.571228707E-1;-2.848471105E-2;1.559274963E0
1.189027583E1;-1.321033366E0;4.481306076E-2;5.290560722E-3;1.321803826E0
1.190029483E1;-1.065674933E0;-2.662003398E-2;1.252882898E-1;1.073344700E0
1.191031283E1;-8.432123512E-1;-4.143395483E-2;2.347703497E-1;8.762653473E-1
1.192033083E1;-6.367015582E-1;-7.078580797E-2;2.837764853E-1;7.006629707E-1
1.193034883E1;-4.444076854E-1;-1.132886338E-1;2.971660244E-1;5.464797814E-1
1.194036783E1;-2.973876339E-1;-1.237592429E-1;2.521600421E-1;4.090726608E-1
1.195038583E1;-1.370803696E-1;-8.833096325E-2;2.343207719E-1;2.854813670E-1
1.196040383E1;-2.130725384E-2;-6.115953684E-2;2.099074405E-1;2.196716222E-1
1.197042183E1;8.628034472E-2;-1.751767337E-2;1.538694799E-1;1.772765738E-1
1.198044083E1;1.730243737E-1;4.035280466E-2;1.312816493E-1;2.209087010E-1
1.199045883E1;2.436400276E-1;1.429889810E-1;1.034033310E-1;3.008297868E-1
1.200047683E1;3.227522707E-1;2.447819889E-1;7.785337407E-2;4.124904825E-1
1.201049483E1;3.907284915E-1;3.492150146E-1;3.887930632E-2;5.254821414E-1
1.202051383E1;4.284699297E-1;4.500017166E-1;-6.750435054E-2;6.250158902E-1
1.203053183E1;4.418173689E-1;5.600048000E-1;-1.660200306E-1;7.323732750E-1
1.204054983E1;4.695325863E-1;6.894498754E-1;-2.713200887E-1;8.771639361E-1
1.205056783E1;5.237187338E-1;8.106065226E-1;-3.926422852E-1;1.041888771E0
1.206058683E1;5.882813501E-1;8.801229000E-1;-5.191714273E-1;1.179080250E0
1.207060483E1;6.620901686E-1;9.419291389E-1;-6.011938296E-1;1.298856387E0
1.208062283E1;7.565975457E-1;1.000507130E0;-6.542859630E-1;1.414759515E0
1.209064083E1;8.422452217E-1;1.018970883E0;-7.496551466E-1;1.519757057E0
1.210065883E1;9.453754878E-1;1.033250953E0;-8.361384628E-1;1.631094686E0
1.211067783E1;1.020416315E0;1.079420568E0;-8.833920783E-1;1.728230245E0
1.212069583E1;1.047119964E0;1.150227426E0;-9.466531775E-1;1.820888681E0
1.213071383E1;1.083482044E0;1.244651772E0;-9.277175543E-1;1.893079828E0
1.214073183E1;1.143945177E0;1.298973575E0;-8.762654918E-1;1.940047456E0
1.215075083E1;1.224720953E0;1.316626319E0;-8.059644911E-1;1.970539276E0
1.216076883E1;1.339490687E0;1.291872717E0;-6.622755253E-1;1.975292203E0
1.217078683E1;1.563518568E0;1.045309666E0;-4.905030406E-1;1.943670714E0
1.218080483E1;1.969075599E0;3.890444934E-1;-3.684617096E-1;2.040680858E0
1.219082383E1;2.385060554E0;-5.057215887E-1;-1.809245833E-1;2.444790763E0
1.220084183E1;2.731491709E0;-1.380419442E0;2.552430231E-2;3.060597373E0
1.221085983E1;3.119124684E0;-2.139126663E0;1.215238889E-1;3.784120734E0
1.222087783E1;3.433449363E0;-2.798421278E0;2.987307394E-1;4.439479275E0
1.223089683E1;3.555305922E0;-3.332504786E0;5.658584476E-1;4.905709340E0
1.224091483E1;3.588559037E0;-3.568382635E0;9.559589481E-1;5.150239616E0
1.225093283E1;3.425464990E0;-3.267229394E0;1.398272746E0;4.935966469E0
1.226095083E1;3.125263676E0;-2.461312339E0;1.799611595E0;4.366226445E0
1.227096983E1;2.753542144E0;-1.351406727E0;2.146712841E0;3.743884413E0
1.228098783E1;2.417565225E0;-2.023557615E-1;2.352238963E0;3.379141549E0
1.229100583E1;2.112233564E0;8.533865064E-1;2.435072958E0;3.334573357E0
1.230102383E1;1.961071930E0;1.699159938E0;2.518858881E0;3.616296126E0
1.231104283E1;1.901923251E0;2.299642088E0;2.520963879E0;3.906523347E0
1.232106083E1;1.858890667E0;2.761049384E0;2.356949480E0;4.078489802E0
1.233107883E1;1.789592391E0;3.076096779E0;2.098640542E0;4.131501475E0
1.234109683E1;1.679761800E0;3.275046537E0;1.752143898E0;4.076461427E0
1.235111583E1;1.544414545E0;3.311501003E0;1.388468134E0;3.908848800E0
1.236113383E1;1.509906033E0;3.019341365E0;1.111659776E0;3.554156153E0
1.237115183E1;1.470364237E0;2.577246838E0;6.849264693E-1;3.045208781E0
1.238116983E1;1.464415280E0;1.995892099E0;1.989175987E-1;2.483478527E0
1.239118783E1;1.462486283E0;1.273104324E0;-2.079650320E-1;1.950105177E0
1.240120683E1;1.500245848E0;4.212176281E-1;-5.461662312E-1;1.651199396E0
1.241122483E1;1.550648262E0;-4.400310445E-1;-8.344210625E-1;1.815047069E0
1.242124283E1;1.464236355E0;-1.086282275E0;-1.079227610E0;2.118662200E0
1.243126083E1;1.271389920E0;-1.429561197E0;-1.277613112E0;2.300515770E0
1.244127983E1;1.025877614E0;-1.661696827E0;-1.381184843E0;2.391930767E0
1.245129783E1;7.642305011E-1;-1.819526626E0;-1.409739720E0;2.425302349E0
1.246131583E1;4.710049152E-1;-1.906416836E0;-1.339493610E0;2.377080965E0
1.247133383E1;1.179441869E-1;-1.893734225E0;-1.137092825E0;2.212039837E0
1.248135283E1;-2.198056072E-1;-1.832303962E0;-8.888954777E-1;2.048362147E0
1.249137083E1;-5.295992786E-1;-1.694395042E0;-4.843617100E-1;1.840123969E0
1.250138883E1;-9.597818577E-1;-1.388329555E0;-9.120896280E-2;1.690254195E0
1.251140683E1;-1.341240174E0;-1.086431964E0;2.569325030E-1;1.745071324E0
1.252142583E1;-1.704711285E0;-8.286106843E-1;5.771529293E-1;1.981348464E0
1.253144383E1;-2.033813047E0;-5.737352318E-1;7.969947892E-1;2.258488061E0
1.254146183E1;-2.325077477E0;-3.522772014E-1;1.013121328E0;2.560566212E0
1.255147983E1;-2.586262659E0;-1.873406965E-1;1.133737108E0;2.830054931E0
1.256149883E1;-2.806070606E0;-1.001294750E-1;1.136580609E0;3.029170453E0
1.257151683E1;-2.978872785E0;-6.377733529E-2;1.044943045E0;3.157476300E0
1.258153483E1;-3.111696966E0;-7.348605216E-2;8.547371402E-1;3.227790853E0
1.259155283E1;-3.188208368E0;-1.280762422E-1;5.710893301E-1;3.241484096E0
1.260157183E1;-3.212070270E0;-2.158751088E-1;3.293140161E-1;3.236115759E0
1.261158983E1;-3.187689720E0;-2.553022993E-1;1.576087012E-1;3.201778493E0
1.262160783E1;-3.157665437E0;-2.567149866E-1;-4.718227945E-2;3.168434907E0
1.263162583E1;-3.112824309E0;-2.614225799E-1;-2.289600811E-1;3.132162139E0
1.264164483E1;-3.042590479E0;-2.383325100E-1;-4.325185418E-1;3.082406770E0
1.265166283E1;-2.931463560E0;-1.611755759E-1;-6.292188764E-1;3.002561001E0
1.266168083E1;-2.820439553E0;-8.580847442E-2;-8.319032514E-1;2.941820081E0
1.267169883E1;-2.635374008E0;-5.415691137E-3;-9.625172583E-1;2.805648760E0
1.268171783E1;-2.471297629E0;1.069444048E-1;-1.050600811E0;2.687473003E0
1.269173583E1;-2.302006118E0;2.475015289E-1;-1.115231328E0;2.569869664E0
1.270175383E1;-2.121444098E0;4.022130078E-1;-1.162963758E0;2.452505875E0
1.271177183E1;-1.939977515E0;5.484460241E-1;-1.160369494E0;2.326104719E0
1.272179083E1;-1.720943155E0;6.505056649E-1;-1.153766745E0;2.171630877E0
1.273180883E1;-1.530350822E0;7.122317970E-1;-1.108615716E0;2.019474332E0
1.274182683E1;-1.318091047E0;7.259838635E-1;-1.050361002E0;1.835122561E0
1.275184483E1;-1.041166914E0;6.422979283E-1;-9.960989141E-1;1.577589369E0
1.276186421E1;-7.003379756E-1;4.266333193E-1;-9.730748447E-1;1.272542307E0
1.277188221E1;-3.803993851E-1;9.112768650E-2;-9.578709877E-1;1.034661672E0
1.278190021E1;-9.984179199E-2;-2.661389440E-1;-9.288647050E-1;9.713845588E-1
1.279191821E1;1.811063951E-1;-5.831779003E-1;-9.640186771E-1;1.141152049E0
1.280193621E1;5.029014766E-1;-8.256929237E-1;-1.004441210E0;1.394123683E0
1.281195521E1;7.381484109E-1;-9.881402689E-1;-1.015079634E0;1.597395045E0
1.282197321E1;9.005764604E-1;-1.037927556E0;-9.657051603E-1;1.679558879E0
1.283199121E1;1.102388431E0;-9.999586612E-1;-9.447743940E-1;1.762888605E0
1.284200921E1;1.271943067E0;-9.009951210E-1;-9.407175958E-1;1.820599068E0
1.285202821E1;1.399758523E0;-6.625275403E-1;-8.856784127E-1;1.784010346E0
1.286204621E1;1.529521687E0;-3.934059316E-1;-7.717249504E-1;1.757772516E0
1.287206421E1;1.718340560E0;-2.447925138E-1;-6.180775917E-1;1.842454223E0
1.288208221E1;1.975880004E0;-2.967812777E-1;-5.073138221E-1;2.061443239E0
1.289210121E1;2.280932752E0;-5.127633905E-1;-5.373989161E-1;2.398828487E0
1.290211921E1;2.584015574E0;-7.957037240E-1;-5.104712820E-1;2.751519914E0
1.291213721E1;2.842289429E0;-1.061227541E0;-4.697863555E-1;3.070099723E0
1.292215521E1;3.078704637E0;-1.375745178E0;-4.470364839E-1;3.401608245E0
1.293217421E1;3.251334323E0;-1.657328373E0;-4.105611141E-1;3.672393313E0
1.294219221E1;3.354133637E0;-1.850171299E0;-3.491618049E-1;3.846460744E0
1.295221021E1;3.410991377E0;-1.911433747E0;-2.626639803E-1;3.918856148E0
1.296222821E1;3.412702273E0;-1.797450464E0;-2.136450173E-1;3.863031085E0
1.297224721E1;3.285312493E0;-1.423766021E0;-1.168367608E-1;3.582462657E0
1.298226521E1;3.060444367E0;-8.715473735E-1;8.508745791E-2;3.183261601E0
1.299228321E1;2.791801060E0;-2.752179158E-1;3.158560646E-1;2.823059177E0
1.300230121E1;2.459199740E0;3.520889211E-1;5.484828615E-1;2.544103657E0
1.301232021E1;2.091770648E0;1.058761770E0;7.124972606E-1;2.450333299E0
1.302233821E1;1.726344813E0;1.728180839E0;8.386088383E-1;2.582661458E0
1.303235621E1;1.396673532E0;2.276261997E0;9.202535105E-1;2.824700366E0
1.304237421E1;1.155436125E0;2.581220021E0;1.014441045E0;3.004466686E0
1.305239321E1;9.387026453E-1;2.626127222E0;1.088231152E0;2.993652265E0
1.306241121E1;7.432986385E-1;2.450999604E0;1.076746051E0;2.778358146E0
1.307242921E1;5.421281075E-1;2.120727230E0;9.473746508E-1;2.385142679E0
1.308244721E1;2.615301687E-1;1.788128833E0;7.644690675E-1;1.962196653E0
1.309246621E1;9.178432882E-2;1.263512551E0;6.830588686E-1;1.439255970E0
1.310248421E1;3.714677632E-2;6.758428198E-1;6.556418592E-1;9.423426381E-1
1.311250221E1;-8.617977262E-2;2.539866757E-1;5.488190764E-1;6.108506882E-1
1.312252021E1;-2.021610492E-1;-1.123168266E-1;4.390556924E-1;4.962399222E-1
1.313253921E1;-2.642695892E-1;-4.672217667E-1;4.560927612E-1;7.043828517E-1
1.314255721E1;-3.028723222E-1;-7.487078977E-1;4.982552791E-1;9.489749642E-1
1.315257521E1;-3.289503193E-1;-8.941597259E-1;5.065045309E-1;1.079016574E0
1.316259321E1;-3.424427694E-1;-9.512688965E-1;5.302044654E-1;1.141620050E0
1.317261221E1;-3.259717476E-1;-9.503824586E-1;6.492409122E-1;1.196243353E0
1.318263021E1;-2.410760236E-1;-8.812391335E-1;9.210405457E-1;1.297310967E0
1.319264821E1;-1.574485606E-1;-6.947848749E-1;1.189079250E0;1.386154946E0
1.320266621E1;-1.587980980E-1;-4.466132551E-1;1.309348290E0;1.392506079E0
1.321268521E1;-1.320780766E-1;-2.989821696E-1;1.409264342E0;1.446672368E0
1.322270321E1;-9.828233957E-2;-1.596360040E-1;1.493734388E0;1.505451924E0
1.323272121E1;-1.267003924E-1;7.001456022E-3;1.512677028E0;1.517990053E0
1.324273921E1;-1.482087904E-1;1.877622807E-1;1.537202590E0;1.555703160E0
1.325275821E1;-1.645710540E-1;3.380246133E-1;1.490551164E0;1.537233568E0
1.326277621E1;-1.786540729E-1;4.317642510E-1;1.336824356E0;1.416134530E0
1.327279421E1;-2.113400084E-1;5.399634683E-1;1.138180407E0;1.277372219E0
1.328281221E1;-2.715581435E-1;6.492064136E-1;9.432389152E-1;1.176823030E0
1.329283121E1;-3.860957426E-1;7.419841844E-1;7.218972445E-1;1.104873786E0
1.330284921E1;-4.931091446E-1;7.814680928E-1;5.204349375E-1;1.060519464E0
1.331286721E1;-5.645656282E-1;7.555789608E-1;3.484496140E-1;1.005510342E0
1.332288521E1;-6.252345836E-1;6.930061519E-1;2.639760590E-1;9.699789538E-1
1.333290421E1;-6.988907897E-1;5.978737074E-1;2.344850421E-1;9.491493776E-1
1.334292221E1;-7.845893365E-1;4.628328466E-1;2.254101817E-1;9.384052541E-1
1.335294021E1;-8.860595781E-1;3.273774183E-1;2.388611166E-1;9.743367913E-1
1.336295821E1;-1.000965552E0;2.321543419E-1;2.855593196E-1;1.066476347E0
1.337297721E1;-1.119279283E0;1.882499385E-1;3.275177515E-1;1.181309455E0
1.338299521E1;-1.251677787E0;1.616684961E-1;3.336842251E-1;1.305442127E0
1.339301321E1;-1.400100585E0;1.666485697E-1;3.319780076E-1;1.448538157E0
1.340303121E1;-1.545266485E0;1.861291534E-1;3.644873571E-1;1.598544214E0
1.341305021E1;-1.633878114E0;1.758140802E-1;3.816711545E-1;1.687051023E0
1.342306821E1;-1.684530789E0;8.822045088E-2;3.681138003E-1;1.726538328E0
1.343308621E1;-1.678343850E0;-1.362044567E-1;3.577116036E-1;1.721437575E0
1.344310421E1;-1.605567650E0;-4.418454355E-1;3.399103403E-1;1.699592277E0
1.345312321E1;-1.548356738E0;-7.656665772E-1;3.150386238E-1;1.755819817E0
1.346314121E1;-1.440670906E0;-1.102545721E0;3.204110456E-1;1.842227718E0
1.347315921E1;-1.380565622E0;-1.327152477E0;3.219956410E-1;1.941900185E0
1.348317721E1;-1.389938124E0;-1.368055505E0;3.507697892E-1;1.981550731E0
1.349319621E1;-1.439773359E0;-1.288461451E0;4.543497062E-1;1.984820871E0
1.350321421E1;-1.438516207E0;-1.154169034E0;5.565683913E-1;1.926448393E0
1.351323221E1;-1.372466059E0;-9.719347107E-1;5.718062353E-1;1.776311498E0
1.352325021E1;-1.213183812E0;-8.502284253E-1;5.792561728E-1;1.590673144E0
1.353326921E1;-9.954358399E-1;-9.973794544E-1;5.478613025E-1;1.511889643E0
1.354328721E1;-6.824706388E-1;-1.454194931E0;4.845996916E-1;1.677881382E0
1.355330521E1;-2.488767940E-1;-2.178393640E0;4.188290405E-1;2.232208833E0
1.356332321E1;1.021070033E-1;-2.940684620E0;2.913924837E-1;2.956849920E0
1.357334221E1;2.899055368E-1;-3.431663039E0;1.721864676E-1;3.448188599E0
1.358336021E1;4.225993252E-1;-3.688760433E0;1.667672682E-1;3.716632218E0
1.359337821E1;5.363510585E-1;-3.979562933E0;2.335307765E-1;4.022328954E0
1.360339621E1;6.342685318E-1;-4.293192962E0;2.929653847E-1;4.349670229E0
1.361341521E1;5.916242033E-1;-4.183282265E0;3.734920692E-1;4.241387277E0
1.362343321E1;3.221792436E-1;-3.474975119E0;4.280781662E-1;3.516035048E0
1.363345121E1;6.085197330E-3;-2.494968912E0;4.917999530E-1;2.542985272E0
1.364346921E1;-2.625686342E-1;-1.569732404E0;5.790942049E-1;1.693621034E0
1.365348821E1;-5.384712589E-1;-7.067699128E-1;6.082928610E-1;1.076798594E0
1.366350621E1;-7.164300978E-1;-2.446475029E-3;5.302342862E-1;8.913060465E-1
1.367352421E1;-8.242474920E-1;5.143029624E-1;4.291569775E-1;1.062105068E0
1.368354221E1;-9.285355067E-1;9.615939099E-1;2.969742358E-1;1.369319076E0
1.369356121E1;-1.030502762E0;1.304239578E0;1.744855928E-1;1.671353356E0
1.370357921E1;-1.186819886E0;1.402533027E0;-1.474667788E-3;1.837292167E0
1.371359721E1;-1.238225098E0;1.173491158E0;-1.997806478E-1;1.717613227E0
1.372361521E1;-1.217276278E0;7.737439209E-1;-4.045197344E-1;1.498024502E0
1.373363421E1;-1.242017017E0;3.443144631E-1;-7.058712689E-1;1.469494120E0
1.374365221E1;-1.288172598E0;-1.581607515E-1;-1.066278512E0;1.679688463E0
1.375367021E1;-1.307177804E0;-6.204468834E-1;-1.269052788E0;1.924620254E0
1.376368871E1;-1.323509077E0;-9.547286940E-1;-1.442126863E0;2.177823006E0
1.377370671E1;-1.283978391E0;-1.165468778E0;-1.650638573E0;2.394060500E0
1.378372471E1;-1.224280073E0;-1.337233077E0;-1.820660255E0;2.569408057E0
1.379374271E1;-1.191080167E0;-1.430245321E0;-1.884558774E0;2.648742233E0
1.380376171E1;-1.122768316E0;-1.406037848E0;-1.798567282E0;2.544090287E0
1.381377971E1;-1.089021111E0;-1.253927795E0;-1.654481363E0;2.344271844E0
1.382379771E1;-1.030286415E0;-1.038829781E0;-1.394130578E0;2.020954596E0
1.383381571E1;-9.550444436E-1;-7.416532320E-1;-1.019158579E0;1.581405582E0
1.384383471E1;-9.417531377E-1;-4.809369957E-1;-7.483383536E-1;1.295457316E0
1.385385271E1;-9.416496420E-1;-2.292523688E-1;-5.110092258E-1;1.095623624E0
1.386387071E1;-9.263983494E-1;3.318528771E-2;-2.130795550E-1;9.511666846E-1
1.387388871E1;-8.097329485E-1;2.272713321E-1;9.354134403E-2;8.462090105E-1
1.388390771E1;-7.056314600E-1;3.473912680E-1;3.005784595E-1;8.419880407E-1
1.389392571E1;-5.507971895E-1;3.848590565E-1;4.855891136E-1;8.290300504E-1
1.390394371E1;-3.956144249E-1;3.876218659E-1;5.852005253E-1;8.057426009E-1
1.391396171E1;-2.519161767E-1;3.682775223E-1;5.354516836E-1;6.969925387E-1
1.392398071E1;-1.560189164E-1;3.397951502E-1;3.471766021E-1;5.102295948E-1
1.393399871E1;-1.184663433E-1;3.785762233E-1;5.031470597E-2;3.998572257E-1
1.394401671E1;-1.735933077E-1;5.210161507E-1;-3.077085543E-1;6.295053774E-1
1.395403471E1;-1.709988981E-1;6.176068908E-1;-5.888509420E-1;8.703012850E-1
1.396405371E1;-1.469019377E-1;7.361662048E-1;-6.962631241E-1;1.023866787E0
1.397407171E1;-1.049674612E-1;8.826395416E-1;-9.002782524E-1;1.265137012E0
1.398408971E1;-2.993774414E-4;9.924385571E-1;-1.073734224E0;1.462135275E0
1.399410771E1;1.422510624E-1;1.066398818E0;-1.095639648E0;1.535535100E0
1.400412671E1;2.971923369E-1;1.132118599E0;-1.097551687E0;1.604567080E0
1.401414471E1;4.439206123E-1;1.210704592E0;-1.113208119E0;1.703556115E0
1.402416271E1;5.840783715E-1;1.315036461E0;-1.085743601E0;1.802583592E0
1.403418071E1;6.878933465E-1;1.463894877E0;-1.046362165E0;1.926410976E0
1.404419971E1;7.743093467E-1;1.587477534E0;-9.953914741E-1;2.027423013E0
1.405421771E1;8.545892787E-1;1.686201923E0;-9.443240122E-1;2.113136910E0
1.406423571E1;9.344499654E-1;1.762795186E0;-9.000192207E-1;2.188761797E0
1.407425371E1;1.029358461E0;1.815758096E0;-8.728102259E-1;2.262377952E0
1.408427271E1;1.107035798E0;1.809758853E0;-9.036264411E-1;2.305926301E0
1.409429071E1;1.204068003E0;1.721232592E0;-9.301446605E-1;2.297300695E0
1.410430871E1;1.294444322E0;1.584641050E0;-9.054259948E-1;2.237514155E0
1.411432771E1;1.414083032E0;1.350761780E0;-8.884072351E-1;2.147895626E0
1.412434571E1;1.526715608E0;1.058140211E0;-9.180479407E-1;2.072036022E0
1.413436371E1;1.619366494E0;8.219735098E-1;-9.463882256E-1;2.047837632E0
1.414438171E1;1.723635798E0;6.370424509E-1;-9.591692157E-1;2.072860109E0
1.415440071E1;1.861593835E0;4.755797768E-1;-9.690122724E-1;2.151904392E0
1.416441871E1;2.001967941E0;3.496827918E-1;-9.346749370E-1;2.236911024E0
1.417443671E1;2.113255658E0;3.062637073E-1;-8.623426867E-1;2.302885547E0
1.418445471E1;2.241995559E0;3.436268306E-1;-7.569583189E-1;2.391152312E0
1.419447371E1;2.339831171E0;4.084841466E-1;-6.577334082E-1;2.464605941E0
1.420449171E1;2.442765555E0;4.064013684E-1;-5.683891225E-1;2.540734505E0
1.421450971E1;2.675623317E0;9.778006375E-2;-4.257755327E-1;2.711052541E0
1.422452771E1;2.990226324E0;-4.787606621E-1;-2.854458654E-1;3.041733811E0
1.423454671E1;3.324349675E0;-1.140592968E0;-1.707631092E-1;3.518723223E0
1.424456471E1;3.606067940E0;-1.764394984E0;-1.679798345E-1;4.018088211E0
1.425458271E1;3.773874258E0;-2.253748462E0;-1.794333605E-1;4.399284644E0
1.426460071E1;3.854647695E0;-2.544048686E0;-1.524560617E-1;4.621010217E0
1.427461971E1;3.805857943E0;-2.578601637E0;-1.220735637E-1;4.598765383E0
1.428463771E1;3.588294159E0;-2.348733557E0;-5.070244946E-2;4.288936352E0
1.429465571E1;3.179494262E0;-1.798861982E0;1.823739253E-2;3.653138486E0
1.430467371E1;2.677502612E0;-1.034321578E0;1.370862168E-1;2.873609924E0
1.431469271E1;2.128340889E0;-1.662252313E-1;2.380465811E-1;2.148053059E0
1.432471071E1;1.541184543E0;6.530690843E-1;2.257416274E-1;1.688996243E0
1.433472871E1;9.278139603E-1;1.307445021E0;1.228054889E-1;1.607896892E0
1.434474671E1;3.913570672E-1;1.758394572E0;-1.083466402E-1;1.804674712E0
1.435476571E1;-5.422415435E-2;1.994139104E0;-3.115842350E-1;2.019063090E0
1.436478371E1;-4.333494312E-1;1.980325057E0;-4.623427038E-1;2.079240206E0
1.437480171E1;-7.043035573E-1;1.733997064E0;-6.471674895E-1;1.980306814E0
1.438482071E1;-8.751206070E-1;1.311558537E0;-8.720687990E-1;1.801811828E0
1.439483871E1;-9.947984934E-1;7.894483727E-1;-1.034052168E0;1.637716905E0
1.440485671E1;-1.017978610E0;2.061435878E-1;-1.089740319E0;1.505426714E0
1.441487471E1;-9.396452165E-1;-4.114972168E-1;-1.159611184E0;1.548212256E0
1.442489371E1;-7.776299804E-1;-9.814656723E-1;-1.198185704E0;1.733099026E0
1.443491171E1;-6.394415635E-1;-1.446920995E0;-1.166318817E0;1.965391936E0
1.444492971E1;-5.820540655E-1;-1.720403457E0;-1.048951970E0;2.097349572E0
1.445494771E1;-5.696410114E-1;-1.845112288E0;-8.124764621E-1;2.095005546E0
1.446496671E1;-5.336818045E-1;-1.959078029E0;-4.482558111E-1;2.079359581E0
1.447498471E1;-5.132966566E-1;-1.990290467E0;-1.938995183E-2;2.055506159E0
1.448500271E1;-5.301027238E-1;-1.974441004E0;3.419544904E-1;2.072766038E0
1.449502071E1;-5.346465951E-1;-1.951642710E0;6.740179038E-1;2.132851702E0
1.450503971E1;-5.815517896E-1;-1.866076310E0;9.765212667E-1;2.184956994E0
1.451505771E1;-6.568072093E-1;-1.770082571E0;1.287540514E0;2.285245850E0
1.452507571E1;-7.537733406E-1;-1.742356244E0;1.574932918E0;2.466656284E0
1.453509371E1;-8.968968076E-1;-1.696800002E0;1.740490397E0;2.590918940E0
1.454511271E1;-1.108535609E0;-1.597104975E0;1.846735475E0;2.681422647E0
1.455513071E1;-1.343175602E0;-1.425558193E0;1.872826921E0;2.709947884E0
1.456514871E1;-1.597132457E0;-1.260844467E0;1.805206211E0;2.720171009E0
1.457516671E1;-1.792897822E0;-1.141623248E0;1.648965100E0;2.690143517E0
1.458518571E1;-1.940397930E0;-1.034758950E0;1.432245069E0;2.624346804E0
1.459520371E1;-2.117056932E0;-9.346090096E-1;1.198607873E0;2.606162867E0
1.460522171E1;-2.303353316E0;-8.383778733E-1;9.578651404E-1;2.631695192E0
1.461524071E1;-2.416140259E0;-7.372204578E-1;8.068666434E-1;2.651841159E0
1.462525871E1;-2.499038574E0;-6.463769460E-1;7.023137498E-1;2.675115241E0
1.463527671E1;-2.536194706E0;-5.908927166E-1;5.568946660E-1;2.663000086E0
1.464529471E1;-2.541780551E0;-5.507866645E-1;5.075734019E-1;2.649838689E0
1.465531371E1;-2.581508288E0;-5.268236053E-1;4.490416038E-1;2.672707712E0
1.466533171E1;-2.565648301E0;-5.252524585E-1;3.376346040E-1;2.640537535E0
1.467534971E1;-2.540066147E0;-5.209939313E-1;2.307334868E-1;2.603192012E0
1.468536771E1;-2.515554619E0;-5.210477257E-1;6.587124148E-2;2.569794699E0
1.469538671E1;-2.500503302E0;-4.994241375E-1;-9.297953624E-2;2.551585081E0
1.470540471E1;-2.474911208E0;-4.239558792E-1;-2.178357168E-1;2.520392127E0
1.471542271E1;-2.437956221E0;-3.372405016E-1;-3.162361336E-1;2.481404236E0
1.472544071E1;-2.407030297E0;-2.579528421E-1;-4.257451272E-1;2.457965303E0
1.473545971E1;-2.358162777E0;-2.004016221E-1;-5.525911152E-1;2.430318792E0
1.474547771E1;-2.328323851E0;-1.690137684E-1;-6.452484334E-1;2.421983309E0
1.475549571E1;-2.258262513E0;-1.648803717E-1;-6.412261337E-1;2.353318097E0
1.476551783E1;-2.121095604E0;-2.032679272E-1;-6.422184062E-1;2.225490709E0
1.477553683E1;-2.005057025E0;-3.236141503E-1;-7.338413519E-1;2.159514511E0
1.478555483E1;-1.887694051E0;-4.862714106E-1;-7.783509421E-1;2.098970916E0
1.479557283E1;-1.766622773E0;-6.548828906E-1;-7.545773327E-1;2.029584828E0
1.480559083E1;-1.641882952E0;-7.919889879E-1;-7.363796282E-1;1.966031827E0
1.481560983E1;-1.495672740E0;-9.344792014E-1;-7.073691794E-1;1.900173539E0
1.482562783E1;-1.360310867E0;-1.056359734E0;-7.070898286E-1;1.861804922E0
1.483564583E1;-1.287107236E0;-1.103915724E0;-6.841786104E-1;1.828489905E0
1.484566483E1;-1.259270981E0;-1.066049155E0;-6.217718625E-1;1.763185882E0
1.485568283E1;-1.201249060E0;-1.002250185E0;-5.518216217E-1;1.658918877E0
1.486570083E1;-1.113953639E0;-1.006866562E0;-5.300073411E-1;1.592350704E0
1.487571883E1;-8.769174564E-1;-1.232959095E0;-4.346305561E-1;1.574190610E0
1.488573783E1;-5.360306311E-1;-1.746845736E0;-3.368270304E-1;1.858023496E0
1.489575583E1;-7.984197557E-2;-2.465830482E0;-2.179432690E-1;2.476730501E0
1.490577383E1;3.818711293E-1;-3.264520379E0;-1.135354229E-1;3.288739752E0
1.491579183E1;7.181187737E-1;-3.830273577E0;-8.352396727E-2;3.897905399E0
1.492581083E1;9.697028285E-1;-4.089304061E0;3.270523131E-2;4.202832487E0
1.493582883E1;1.161015539E0;-4.144955521E0;2.511215035E-1;4.311806508E0
1.494584683E1;1.204702426E0;-3.945494131E0;4.667411256E-1;4.151635720E0
1.495586583E1;1.165920183E0;-3.384474839E0;7.457188010E-1;3.656519703E0
1.496588383E1;1.119782143E0;-2.508094742E0;1.113860668E0;2.963973156E0
1.497590183E1;1.109290484E0;-1.542246398E0;1.403570323E0;2.362003171E0
1.498591983E1;1.256177219E0;-7.276596755E-1;1.601056523E0;2.161215353E0
1.499593883E1;1.427424039E0;3.909448385E-2;1.695659210E0;2.216828348E0
1.500595683E1;1.602470965E0;8.224833870E-1;1.665888112E0;2.453482283E0
1.501597483E1;1.676656929E0;1.591102223E0;1.506690649E0;2.759148683E0
1.502599283E1;1.581825616E0;2.203370606E0;1.271624978E0;2.995670942E0
1.503601183E1;1.398072186E0;2.665622240E0;7.606186029E-1;3.104623717E0
1.504602983E1;1.329631112E0;2.785661484E0;1.912254404E-1;3.092635763E0
1.505604783E1;1.368092342E0;2.552311971E0;-2.352644759E-1;2.905395400E0
1.506606583E1;1.393550534E0;2.119647249E0;-6.623549744E-1;2.621755455E0
1.507608483E1;1.381453815E0;1.665537863E0;-1.130874823E0;2.441579178E0
1.508610283E1;1.347377411E0;1.278364479E0;-1.493058450E0;2.383036963E0
1.509612083E1;1.354054931E0;8.928271455E-1;-1.678157324E0;2.333841699E0
1.510613883E1;1.326093546E0;5.903851783E-1;-1.797707887E0;2.310591353E0
1.511615783E1;1.271285255E0;4.013271546E-1;-1.835664357E0;2.268676556E0
1.512617583E1;1.232973713E0;1.927622348E-1;-1.708988523E0;2.116134029E0
1.513619383E1;1.253496271E0;-1.191165537E-1;-1.330529244E0;1.831870553E0
1.514621183E1;1.289744330E0;-3.927720934E-1;-7.235484982E-1;1.530108749E0
1.515623083E1;1.243588164E0;-5.777183551E-1;-1.700510828E-1;1.381733473E0
1.516624883E1;1.148992494E0;-8.375662798E-1;2.771124136E-1;1.448617380E0
1.517626683E1;9.266912949E-1;-1.047436883E0;6.966513062E-1;1.562435222E0
1.518628583E1;6.160018301E-1;-1.144424649E0;1.028452728E0;1.657371728E0
1.519630383E1;2.150927514E-1;-1.179569923E0;1.250838711E0;1.732699506E0
1.520632183E1;-2.722007525E-1;-1.108692314E0;1.404573705E0;1.810005301E0
1.521633983E1;-7.630505329E-1;-9.534230107E-1;1.469042766E0;1.910326726E0
1.522635883E1;-1.187748424E0;-7.767026120E-1;1.471796805E0;2.044553521E0
1.523637683E1;-1.552491889E0;-6.141693127E-1;1.477584379E0;2.229504565E0
1.524639483E1;-1.809757099E0;-4.481709534E-1;1.430715437E0;2.350111619E0
1.525641283E1;-1.918763232E0;-3.124477226E-1;1.319806620E0;2.349716032E0
1.526643183E1;-1.966408684E0;-2.375121456E-1;1.152900188E0;2.291801469E0
1.527644983E1;-1.933329231E0;-1.591845989E-1;9.179228103E-1;2.146085724E0
1.528646783E1;-1.860798613E0;-6.774525583E-2;6.609832907E-1;1.975869381E0
1.529648583E1;-1.840890014E0;-4.373717308E-3;3.381398034E-1;1.871692736E0
1.530650483E1;-1.794009962E0;1.699317813E-2;4.135266026E-2;1.794566955E0
1.531652283E1;-1.780128087E0;4.286359906E-2;-2.244453911E-1;1.794733693E0
1.532654083E1;-1.819836529E0;8.487818241E-2;-4.675655830E-1;1.880858015E0
1.533655983E1;-1.822163721E0;1.421411347E-1;-6.628865594E-1;1.944197345E0
1.534657783E1;-1.826724549E0;2.221333838E-1;-8.350139701E-1;2.020770682E0
1.535659583E1;-1.809753006E0;3.008181953E-1;-9.924549294E-1;2.085824613E0
1.536661383E1;-1.738768392E0;3.757590348E-1;-1.064711312E0;2.073190911E0
1.537663283E1;-1.642590466E0;4.530118632E-1;-1.063173494E0;2.008397636E0
1.538665083E1;-1.547002523E0;5.588488054E-1;-1.047804673E0;1.950236761E0
1.539666883E1;-1.407413113E0;6.282950163E-1;-1.048074814E0;1.863874222E0
1.540668683E1;-1.246402429E0;6.664030749E-1;-1.079609360E0;1.778529854E0
1.541670583E1;-1.111970848E0;7.027949756E-1;-1.099273034E0;1.714293192E0
1.542672383E1;-9.728077000E-1;7.377303350E-1;-1.099448378E0;1.642981316E0
1.543674183E1;-9.019833004E-1;7.578593749E-1;-1.119212113E0;1.624980141E0
1.544676083E1;-8.359062552E-1;7.446049064E-1;-1.131214035E0;1.591483876E0
1.545677883E1;-7.695122910E-1;7.264013547E-1;-1.084366143E0;1.515142906E0
1.546679683E1;-6.871846640E-1;6.702908885E-1;-1.046438763E0;1.420051662E0
1.547681483E1;-5.287561101E-1;4.840284187E-1;-1.058517868E0;1.278407842E0
1.548683383E1;-3.375790554E-1;2.183777171E-1;-1.078027688E0;1.150561664E0
1.549685183E1;-1.412061650E-1;4.543286562E-4;-1.090210435E0;1.099317142E0
1.550686983E1;3.927574754E-2;-1.683857775E-1;-1.096683303E0;1.110229985E0
1.551688783E1;1.976639557E-1;-2.977601016E-1;-1.034317412E0;1.094323821E0
1.552690683E1;3.614678550E-1;-3.951074713E-1;-8.981949625E-1;1.045716556E0
1.553692483E1;5.461164933E-1;-4.963695520E-1;-6.968110082E-1;1.014973664E0
1.554694283E1;8.289831519E-1;-7.380110013E-1;-5.013636589E-1;1.217882927E0
1.555696083E1;1.165091048E0;-1.089889423E0;-3.701726049E-1;1.637780163E0
1.556697983E1;1.454396660E0;-1.388987367E0;-3.275282764E-1;2.037604064E0
1.557699783E1;1.706025739E0;-1.560487372E0;-2.517442685E-1;2.325729957E0
1.558701583E1;1.906866487E0;-1.635000780E0;-1.760806402E-1;2.518009480E0
1.559703383E1;2.050229105E0;-1.645477821E0;-8.639787376E-2;2.630304399E0
1.560705283E1;2.182610067E0;-1.606432453E0;2.277139664E-2;2.710153219E0
1.561707083E1;2.255803759E0;-1.451110525E0;1.246229497E-1;2.685126297E0
1.562708883E1;2.247748634E0;-1.109632546E0;2.229614226E-1;2.516618784E0
1.563710783E1;2.187764972E0;-6.429007763E-1;3.397162127E-1;2.305437938E0
1.564712583E1;2.105505173E0;-1.510522914E-1;3.863565284E-1;2.145982338E0
1.565714383E1;1.986042464E0;3.212109447E-1;3.027834445E-1;2.034507055E0
1.566716183E1;1.842764046E0;7.546416521E-1;2.617213726E-1;2.008422622E0
1.567718083E1;1.695497242E0;1.124037747E0;2.539738119E-1;2.050042549E0
1.568719883E1;1.587475196E0;1.274218218E0;1.843562776E-1;2.043941487E0
1.569721683E1;1.495845818E0;1.178055494E0;1.017404560E-1;1.906756560E0
1.570723583E1;1.346748251E0;9.704962957E-1;9.567798972E-3;1.660025739E0
1.571725383E1;1.124365191E0;6.838704622E-1;-7.510229565E-2;1.318148795E0
1.572727183E1;9.106775254E-1;2.938360351E-1;-9.575349189E-2;9.616870083E-1
1.573728983E1;7.682995784E-1;-1.174384028E-1;-1.285751559E-1;7.877865138E-1
1.574730883E1;6.084489816E-1;-5.115769905E-1;-1.919530533E-1;8.177818506E-1
1.575732363E1;4.774760288E-1;-8.960980779E-1;-2.332471865E-1;1.041815422E0
1.576734162E1;4.037157422E-1;-1.206101080E0;-3.031979390E-1;1.307514897E0
1.577735963E1;2.558156848E-1;-1.426256935E0;-3.301782346E-1;1.486158866E0
1.578737863E1;6.559698880E-2;-1.534451475E0;-2.904195801E-1;1.563070000E0
1.579739663E1;-1.240071648E-1;-1.559872245E0;-1.228202166E-1;1.569606321E0
1.580741463E1;-2.961170340E-1;-1.582145458E0;1.642774872E-1;1.617979185E0
1.581743263E1;-3.478356564E-1;-1.648631809E0;4.913438702E-1;1.755105491E0
1.582745163E1;-4.394878381E-1;-1.669822118E0;7.669155425E-1;1.889342456E0
1.583746963E1;-5.396307617E-1;-1.692782380E0;9.747635937E-1;2.026543266E0
1.584748763E1;-6.354818290E-1;-1.671883262E0;1.171100816E0;2.137874626E0
1.585750663E1;-7.766798079E-1;-1.571405293E0;1.340066053E0;2.206427688E0
1.586752463E1;-9.555806333E-1;-1.384911858E0;1.479387660E0;2.240469381E0
1.587754263E1;-1.156748241E0;-1.177148007E0;1.438207474E0;2.189105904E0
1.588756063E1;-1.345446661E0;-9.894798660E-1;1.275427423E0;2.101430996E0
1.589757963E1;-1.564966339E0;-7.632487535E-1;9.939740360E-1;2.004907151E0
1.590759763E1;-1.781486396E0;-6.008440930E-1;6.225039339E-1;1.980459176E0
1.591761563E1;-1.917700793E0;-5.092106223E-1;3.263974249E-1;2.010822485E0
1.592763363E1;-2.051762829E0;-4.166152847E-1;1.028846830E-1;2.096159407E0
1.593765263E1;-2.146097129E0;-3.606854975E-1;-6.525266089E-2;2.177173586E0
1.594767063E1;-2.256791938E0;-3.555007714E-1;-2.136063892E-1;2.294584568E0
1.595768862E1;-2.369032166E0;-3.255279440E-1;-3.207560313E-1;2.412709323E0
1.596770663E1;-2.466121674E0;-2.765078115E-1;-3.676448536E-1;2.508660084E0
1.597772563E1;-2.552727123E0;-2.495153099E-1;-4.569002616E-1;2.605269949E0
1.598774363E1;-2.622100829E0;-2.064388722E-1;-5.603013269E-1;2.689231738E0
1.599776162E1;-2.676538991E0;-1.363488829E-1;-6.543841962E-1;2.758744400E0
1.600778063E1;-2.714069930E0;-8.383854747E-2;-7.522922409E-1;2.817649393E0
1.601779863E1;-2.734919931E0;-3.643575490E-2;-8.035664749E-1;2.850760192E0
1.602781663E1;-2.759964141E0;1.491332352E-2;-8.022046584E-1;2.874222813E0
1.603783462E1;-2.785543370E0;7.396143079E-2;-7.764254540E-1;2.892673270E0
1.604785363E1;-2.760962260E0;1.037149876E-1;-7.672027139E-1;2.867449983E0
1.605787163E1;-2.696410754E0;5.837626219E-2;-7.530640002E-1;2.800204301E0
1.606788963E1;-2.596421027E0;-7.408948481E-2;-6.998900789E-1;2.690118496E0
1.607790763E1;-2.454922501E0;-2.616892129E-1;-6.866644080E-1;2.562544388E0
1.608792663E1;-2.283228954E0;-5.402394569E-1;-7.071214036E-1;2.450512968E0
1.609794463E1;-2.114019889E0;-8.492227042E-1;-7.344096281E-1;2.393661796E0
1.610796263E1;-1.948922001E0;-1.132901541E0;-7.231315186E-1;2.367420972E0
1.611798163E1;-1.732520642E0;-1.372967750E0;-6.596233014E-1;2.306896426E0
1.612799963E1;-1.548133959E0;-1.547478486E0;-5.764313098E-1;2.263555053E0
1.613801763E1;-1.443297476E0;-1.636343885E0;-4.873473714E-1;2.235673584E0
1.614803563E1;-1.306892459E0;-1.658953314E0;-3.573502457E-1;2.141913443E0
1.615805463E1;-1.122695811E0;-1.691774320E0;-2.223093849E-1;2.042539521E0
1.616807263E1;-8.226903784E-1;-1.957265977E0;-1.387562547E-1;2.127666060E0
1.617809063E1;-4.107037497E-1;-2.480505824E0;-6.133736528E-2;2.515024649E0
1.618810863E1;4.440024734E-2;-3.056516792E0;5.964218438E-2;3.057421049E0
1.619812763E1;4.507332033E-1;-3.622808518E0;1.990064764E-1;3.656159947E0
1.620814563E1;7.890946162E-1;-4.080281807E0;3.548137236E-1;4.171002603E0
1.621816363E1;1.000273241E0;-4.308737785E0;5.521250556E-1;4.457646233E0
1.622818263E1;1.049796234E0;-4.163246196E0;7.543124539E-1;4.359320853E0
1.623820063E1;8.907858825E-1;-3.517232362E0;9.943178523E-1;3.762059405E0
1.624821863E1;6.016919392E-1;-2.579109176E0;1.249669853E0;2.928397526E0
1.625823663E1;3.733306861E-1;-1.691030554E0;1.384210777E0;2.216979840E0
1.626825563E1;2.437137026E-1;-9.154558700E-1;1.408642198E0;1.697565510E0
1.627827363E1;1.072946531E-1;-1.768882138E-1;1.357868485E0;1.373538644E0
1.628829163E1;-7.475665212E-3;4.020814455E-1;1.181094292E0;1.247681491E0
