"Time (s)","Linear Acceleration x (m/s^2)","Linear Acceleration y (m/s^2)","Linear Acceleration z (m/s^2)","Absolute acceleration (m/s^2)"
4.667541667E-3,-4.907615460E0,-2.314271237E0,-4.085881101E0,6.792272464E0
1.468654167E-2,-3.062761034E0,-1.517158334E0,-2.147770748E0,4.036730577E0
2.470454167E-2,-1.508636017E0,-9.459303886E-1,9.392095989E-1,2.013176993E0
3.472354167E-2,1.927727598E-1,-1.110957525E0,5.812594873E0,5.920949850E0
4.474154167E-2,1.628777588E0,-5.064682782E-1,8.775908802E0,8.940134331E0
5.476054167E-2,2.094508899E0,-4.077251780E-1,8.053882334E0,8.331760198E0
6.477854167E-2,1.460913382E0,-1.011396400E0,4.860802651E0,5.175383367E0
7.479754167E-2,3.221505922E-1,-1.087956918E0,6.631029063E-1,1.314205739E0
8.481554167E-2,-1.801097372E0,3.328293622E-1,-2.171600345E0,2.840875778E0
9.483454167E-2,-2.445005624E0,3.323206544E-1,-3.191729561E0,4.034306273E0
1.048525417E-1,-1.829724755E0,2.516138756E-1,-3.920581484E0,4.333839106E0
1.148715417E-1,-9.320110917E-1,1.552085508E0,-2.590153981E0,3.160144260E0
1.248905417E-1,1.155773510E0,1.924625065E0,-1.157310670E0,2.525739898E0
1.349085417E-1,3.621692870E0,1.098936235E0,1.171348153E0,3.961865291E0
1.449275417E-1,4.662921179E0,2.774000967E-1,3.537124590E0,5.859269161E0
1.549455417E-1,4.101252846E0,-3.768893015E-1,3.332964377E0,5.298204601E0
1.649645417E-1,2.502076495E0,-8.171062875E-1,1.707999759E0,3.137724119E0
1.749825417E-1,1.709325907E0,-1.532915411E0,2.984939271E-1,2.315323593E0
1.850015417E-1,-2.375659400E-1,-2.329145384E0,-6.683859388E-1,2.434768071E0
1.950195417E-1,-2.784898130E0,-2.843851805E0,-1.256310389E0,4.173903027E0
2.050385417E-1,-3.985854537E0,-2.674091347E0,-1.800529461E0,5.126373695E0
2.150565417E-1,-3.799871564E0,-2.232832972E0,-1.391558973E0,4.621796551E0
2.250755417E-1,-2.671906242E0,-1.835238095E0,-3.177167217E-1,3.257011782E0
2.350945417E-1,-8.200749189E-1,-1.264890740E0,9.204838908E-1,1.766284816E0
2.451125417E-1,2.073432026E0,1.613749659E-1,2.979995450E0,3.633942092E0
2.551315417E-1,3.722825435E0,-1.340544355E-1,3.001928941E0,4.784242592E0
2.651495417E-1,8.264378589E-1,2.277782857E-1,1.900561434E0,2.084949939E0
2.751685417E-1,-1.071340008E0,1.853736346E0,-9.160435152E-1,2.328785859E0
2.851865417E-1,-2.115525254E0,1.455361451E0,-2.389393779E-1,2.578878842E0
2.952055417E-1,-1.751014801E0,4.293949592E-1,6.369687760E-1,1.912109329E0
3.052235417E-1,-4.242154956E-1,-2.716049212E-1,-3.762671943E-1,6.287328697E-1
3.152425417E-1,8.395493630E-1,1.843697262E-1,-9.684450924E-1,1.294882707E0
3.252605417E-1,1.404655566E0,1.117828588E0,-2.841235176E-3,1.795161855E0
3.352795417E-1,1.406253318E0,2.341505814E0,1.580953796E0,3.155885418E0
3.452985417E-1,1.129102897E0,4.730130830E0,2.187098390E0,5.332205021E0
3.553165417E-1,8.830339363E-1,5.268465849E0,1.074859666E0,5.449018685E0
3.653355417E-1,1.041475354E0,4.098046233E0,-7.582061879E-1,4.295757263E0
3.753535417E-1,-1.673326939E-1,1.636447966E0,-1.000489004E0,1.925341637E0
3.853725417E-1,-1.475572937E0,-7.641807997E-1,2.991341607E-1,1.688422054E0
3.953905417E-1,-2.003918864E0,-1.863004768E0,5.188936114E-1,2.784910799E0
4.054095417E-1,-1.922599297E0,-3.283157794E0,1.044148993E-1,3.806102420E0
4.154275417E-1,-1.632602836E0,-3.961038369E0,6.667229176E-2,4.284817636E0
4.254465417E-1,-1.393630349E0,-3.735849815E0,3.814805353E-1,4.005534520E0
4.354645417E-1,-1.115224239E0,-2.873560338E0,2.585358095E-1,3.093204630E0
4.454835417E-1,-5.156615630E-1,-1.671449983E0,8.888703346E-2,1.751443062E0
4.555015417E-1,-2.040356666E-2,-3.344203895E-1,1.003042885E-1,3.497345461E-1
4.655205417E-1,2.510928887E-1,9.133836168E-1,1.394677512E-1,9.574802994E-1
4.755395417E-1,3.639748487E-1,1.785289425E0,2.734262924E-1,1.842416337E0
4.855575417E-1,3.170047501E-1,2.260656947E0,1.885475252E-1,2.290548409E0
4.955765417E-1,-3.788960660E-1,2.350773650E0,6.261432409E-2,2.381936090E0
5.055945417E-1,-5.066843328E-1,1.710477224E0,-5.017618543E-1,1.853166562E0
5.156135417E-1,4.328278595E-1,4.051547420E-1,-7.555421233E-1,9.603823307E-1
5.256315417E-1,1.076549585E0,-7.150454772E-1,-3.358266449E-1,1.335300932E0
5.356505417E-1,4.891283602E-1,-1.048251400E0,-2.183256769E-1,1.177176134E0
5.456685417E-1,1.175622760E0,-1.526562996E0,-8.923634613E-1,2.123392569E0
5.556875417E-1,8.177640992E-1,-1.143650478E0,-6.332265580E-1,1.541963168E0
5.657055417E-1,1.331016317E-1,-4.978459740E-1,-6.585777462E-1,8.362363935E-1
5.757245417E-1,5.976518056E-1,-1.317763603E-1,-6.973927331E-1,9.278519893E-1
5.857435417E-1,-2.497515374E-1,3.489092052E-1,-2.672937691E-1,5.055288547E-1
5.957615417E-1,-6.463152578E-1,2.484020001E-1,-2.387815762E-1,7.324231067E-1
6.057805417E-1,-7.412424651E-1,-5.490149581E-1,-4.719410545E-1,1.036140036E0
6.157985417E-1,9.511022508E-2,-1.583527740E0,-3.218202245E-1,1.618695251E0
6.258175417E-1,9.305022177E-1,-1.824433610E0,3.805625224E-1,2.083079501E0
6.358355417E-1,8.844559792E-1,-9.981711674E-1,4.581474727E-1,1.410144377E0
6.458545417E-1,5.680192861E-1,-1.671227789E-1,1.282867328E-1,6.058328304E-1
6.558725417E-1,4.151566967E-1,2.979957443E-1,-9.031375408E-2,5.189538714E-1
6.658915417E-1,2.608466291E-1,5.394606078E-1,1.643534462E-2,5.994404323E-1
6.759095417E-1,5.170488149E-2,5.864511716E-1,3.838545048E-1,7.028105380E-1
6.859285417E-1,-8.483929843E-2,5.082066554E-1,6.657598811E-1,8.418479260E-1
6.959465417E-1,-1.526748937E-1,3.806841445E-1,7.144303501E-1,8.237965563E-1
7.059655417E-1,-1.951946765E-1,1.718853360E-1,6.839160705E-1,7.317012518E-1
7.159845417E-1,-1.947461951E-1,-2.705038905E-2,6.618849313E-1,6.904704674E-1
7.260025417E-1,-5.444664091E-2,-1.143113118E-1,6.174379063E-1,6.302865069E-1
7.360215417E-1,1.794124568E-1,-6.629806995E-2,6.235119939E-1,6.521897502E-1
7.460395417E-1,4.512021500E-1,1.619795680E-2,5.944583488E-1,7.464760427E-1
7.560585417E-1,6.897913527E-1,5.520180881E-2,5.523572266E-1,8.854139460E-1
7.660765417E-1,8.692198893E-1,7.750601292E-2,5.445418382E-1,1.028628316E0
7.760955417E-1,1.026735108E0,2.876830101E-4,4.759493208E-1,1.131685831E0
7.861135417E-1,1.013725930E0,-1.136277723E-1,4.731297934E-1,1.124456906E0
7.961325417E-1,8.617544568E-1,-2.378489453E-1,6.126361728E-1,1.083750868E0
8.061505417E-1,6.497896734E-1,-2.962731546E-1,8.677127695E-1,1.123801518E0
8.161695417E-1,5.143900859E-1,-3.170225841E-1,1.047313507E0,1.209117885E0
8.261875417E-1,5.365261826E-1,-2.967251444E-1,1.081913821E0,1.243560883E0
8.362065417E-1,6.283809704E-1,-2.037778044E-1,1.090767674E0,1.275210632E0
8.462255417E-1,7.665764040E-1,-9.323385358E-2,1.144683681E0,1.380808699E0
8.562435417E-1,8.110798547E-1,5.832714558E-2,1.237887129E0,1.481086469E0
8.662624167E-1,7.270123887E-1,1.404074353E-1,1.261132150E0,1.462434805E0
8.762804167E-1,5.933728132E-1,4.679702103E-2,1.173288333E0,1.315631699E0
8.862994167E-1,4.773123068E-1,-1.508213264E-1,1.080874186E0,1.191160407E0
8.963174167E-1,4.856942904E-1,-3.531706560E-1,1.097000806E0,1.250615538E0
9.063364167E-1,5.868455663E-1,-4.397223115E-1,1.187239643E0,1.395450250E0
9.163544167E-1,7.614530736E-1,-3.887597340E-1,1.286866915E0,1.544982644E0
9.263734167E-1,9.044075561E-1,-1.838972712E-1,1.405568901E0,1.681486001E0
9.363914167E-1,9.359015366E-1,6.697342336E-2,1.517904439E0,1.784497411E0
9.464104167E-1,9.754398242E-1,2.320052379E-1,1.588675629E0,1.878616388E0
9.564284167E-1,8.477012587E-1,3.748673344E-1,1.658572222E0,1.899995989E0
9.664474167E-1,6.644515666E-1,3.708725166E-1,1.676027184E0,1.840681783E0
9.764664167E-1,5.558447984E-1,2.024048781E-1,1.629380436E0,1.733439292E0
9.864844167E-1,4.865593860E-1,-5.860605776E-2,1.477979650E0,1.557112248E0
9.965034167E-1,4.295925951E-1,-3.436081195E-1,1.431751564E0,1.533795579E0
1.006521417E0,3.310980016E-1,-3.436525583E-1,1.285133801E0,1.370872661E0
1.016540417E0,5.680134389E-1,-3.811384732E-1,1.368893995E0,1.530286435E0
1.026558417E0,1.085123065E0,-6.267034042E-1,1.550751758E0,1.993760326E0
1.036577417E0,1.313605648E0,-5.419298869E-1,1.502507551E0,2.068036929E0
1.046595417E0,1.288790942E0,-3.559738111E-1,1.293018040E0,1.859998682E0
1.056614417E0,1.231777958E0,-4.043010485E-1,1.172511749E0,1.748004599E0
1.066632417E0,1.135132254E0,-6.112036049E-1,1.360986075E0,1.874667484E0
1.076651417E0,1.157924700E0,-8.332791013E-1,1.347002020E0,1.962029081E0
1.086670417E0,1.111338471E0,-8.459313065E-1,1.183539598E0,1.830693572E0
1.096688417E0,1.056622859E0,-7.623085213E-1,9.304884768E-1,1.601054325E0
1.106707417E0,1.018545206E0,-7.088205314E-1,7.162500036E-1,1.432785730E0
1.116725417E0,1.087681806E0,-6.131331861E-1,6.326560159E-1,1.399727706E0
1.126744417E0,1.210104668E0,-5.006514680E-1,7.949500179E-1,1.531976087E0
1.136762417E0,1.241090526E0,-3.955957139E-1,1.033649587E0,1.662899014E0
1.146781417E0,1.157813603E0,-3.264348471E-1,1.189824039E0,1.691973195E0
1.156799417E0,1.001404385E0,-2.562665051E-1,1.266521967E0,1.634796977E0
1.166818417E0,8.262826154E-1,-3.459645474E-1,1.246240607E0,1.534780140E0
1.176836417E0,5.729324090E-1,-6.243814749E-1,1.099163180E0,1.387898940E0
1.186855417E0,2.412488088E-1,-9.455210835E-1,5.479870176E-1,1.119151857E0
1.196873417E0,-8.034659028E-2,-1.228854350E0,-1.271045811E-1,1.238020259E0
1.206892417E0,-3.118860975E-1,-1.502299390E0,-2.579908490E-1,1.555871355E0
1.216911417E0,-3.997937223E-1,-1.773885015E0,1.878023341E-2,1.818476221E0
1.226929417E0,-3.513451552E-1,-2.080569722E0,5.398149490E-3,2.110033869E0
1.236948417E0,-3.658471271E-1,-2.357983852E0,-5.546819334E-1,2.449817139E0
1.246966417E0,-5.058686462E-1,-2.392989378E0,-1.162466233E0,2.708067391E0
1.256985417E0,-7.052893978E-1,-2.169271399E0,-1.261713509E0,2.606739825E0
1.267003417E0,-8.268749383E-1,-1.775755540E0,-1.001684175E0,2.200091154E0
1.277022417E0,-8.160891643E-1,-1.351621320E0,-9.390790598E-1,1.837049591E0
1.287040417E0,-7.765181324E-1,-9.651028240E-1,-1.200171418E0,1.724765289E0
1.297059417E0,-7.225971562E-1,-5.868932211E-1,-1.535752334E0,1.795863451E0
1.307077417E0,-6.949772483E-1,-1.505272114E-1,-1.649027081E0,1.795812387E0
1.317096417E0,-6.623994863E-1,4.039794517E-1,-1.427872521E0,1.625051511E0
1.327115417E0,-6.785138279E-1,1.022427172E0,-1.115021925E0,1.658014545E0
1.337133417E0,-6.303891966E-1,1.573914918E0,-9.842673656E-1,1.960454272E0
1.347152417E0,-5.832916287E-1,1.905702306E0,-9.549694531E-1,2.209954085E0
1.357170417E0,-5.170748350E-1,2.028754621E0,-7.819154048E-1,2.234860934E0
1.367189417E0,-4.729540846E-1,2.014425434E0,-4.370254295E-1,2.114849078E0
1.377207417E0,-4.909018207E-1,1.848424151E0,-3.699401781E-2,1.912857809E0
1.387226417E0,-5.556875083E-1,1.491089108E0,2.161737554E-1,1.605884936E0
1.397244417E0,-6.380376470E-1,9.495211637E-1,3.204952455E-1,1.188023435E0
1.407263417E0,-6.940343848E-1,3.196281034E-1,3.096194243E-1,8.244452921E-1
1.417281417E0,-7.123621899E-1,-2.231800354E-1,2.032784522E-1,7.736868532E-1
1.427300417E0,-6.999573219E-1,-6.451677418E-1,8.277545057E-2,9.555278346E-1
1.437318417E0,-6.164392018E-1,-9.379167795E-1,7.125175796E-2,1.124616374E0
1.447337417E0,-5.151730281E-1,-1.092181531E0,1.868618826E-1,1.221957900E0
1.457356417E0,-5.154490167E-1,-1.056809970E0,2.607531468E-1,1.204378348E0
1.467374417E0,-5.527279401E-1,-8.547641104E-1,2.594620816E-1,1.050452489E0
1.477393417E0,-6.430966580E-1,-5.368539190E-1,3.601790556E-1,9.118741108E-1
1.487411417E0,-7.620743403E-1,-1.924184185E-1,3.841714970E-1,8.748542090E-1
1.497430417E0,-8.077831945E-1,5.332192898E-2,6.532618962E-2,8.121726593E-1
1.507448417E0,-7.521358278E-1,1.961735004E-1,-3.409617428E-1,8.487916445E-1
1.517467417E0,-6.266238821E-1,3.321183407E-1,-4.923555116E-1,8.633504686E-1
1.527485417E0,-3.950858366E-1,5.132989955E-1,-4.469062006E-1,7.869522408E-1
1.537504417E0,-5.832773030E-2,7.473057353E-1,-3.631483448E-1,8.329133848E-1
1.547522417E0,3.085163471E-1,1.046611841E0,-2.917175889E-1,1.129459089E0
1.557541417E0,5.660882431E-1,1.378785730E0,-1.432813418E-1,1.497342824E0
1.567560417E0,7.366120550E-1,1.602932310E0,5.447028559E-2,1.764923886E0
1.577578417E0,8.222766879E-1,1.693210396E0,1.864992638E-1,1.891529110E0
1.587597417E0,7.768297890E-1,1.622405877E0,2.770340427E-1,1.820003630E0
1.597615417E0,6.078999281E-1,1.436290757E0,4.181133413E-1,1.614711190E0
1.607634417E0,3.361441487E-1,1.151903822E0,6.460635352E-1,1.362818182E0
1.617652417E0,6.399192810E-3,8.271202290E-1,9.311480427E-1,1.245474006E0
1.627671417E0,-3.840553567E-1,4.627439690E-1,1.151768167E0,1.299307665E0
1.637689417E0,-7.978163230E-1,1.562294161E-1,1.206448989E0,1.454798157E0
1.647708417E0,-1.013537650E0,1.696967232E-1,9.499912798E-1,1.399478109E0
1.657726417E0,-1.083598403E0,7.861289084E-2,8.883616269E-1,1.403407235E0
1.667745417E0,-8.903806704E-1,1.279014105E-1,9.112587386E-1,1.280440939E0
1.677764417E0,-4.620969746E-1,3.689908826E-1,8.629297471E-1,1.046104982E0
1.687782417E0,7.628540665E-2,6.816105133E-1,8.809052575E-1,1.116425738E0
1.697801417E0,6.414506668E-1,9.542550695E-1,1.029875355E0,1.543601290E0
1.707819417E0,1.160634300E0,1.126032232E0,1.172677810E0,1.997546949E0
1.717838417E0,1.566149231E0,1.217602553E0,1.198375738E0,2.317646176E0
1.727856417E0,1.762547556E0,1.253234316E0,1.116682534E0,2.433957687E0
1.737875417E0,1.653026576E0,1.251272575E0,1.105065871E0,2.349329797E0
1.747893417E0,1.262125007E0,1.285677007E0,1.237446249E0,2.185680241E0
1.757912417E0,6.387469143E-1,1.310016627E0,1.301004313E0,1.953651301E0
1.767930417E0,-1.917345867E-1,1.232532833E0,1.170681571E0,1.710670827E0
1.777949417E0,-1.118346944E0,1.092202581E0,8.556482095E-1,1.782060668E0
1.787968417E0,-1.911671728E0,8.571912897E-1,4.332213771E-1,2.139379926E0
1.797986417E0,-2.227561999E0,4.304416108E-1,1.116140004E-1,2.271512740E0
1.808005417E0,-2.058758146E0,-1.325049233E-1,1.101463401E-1,2.065956165E0
1.818023417E0,-1.765035254E0,-5.034645635E-1,5.354751456E-1,1.911951790E0
1.828042417E0,-1.548304698E0,-5.073330814E-1,1.118709179E0,1.976396853E0
1.838060417E0,-1.320445428E0,-3.300016487E-1,1.555448241E0,2.066856659E0
1.848079417E0,-1.049015046E0,-9.974589765E-2,1.838903714E0,2.119421780E0
1.858097417E0,-7.521264723E-1,1.237264985E-1,2.088519012E0,2.223266547E0
1.868115917E0,-4.787746954E-1,2.266228759E-1,2.429548509E0,2.486622025E0
1.878133917E0,-4.111510617E-1,5.007906318E-2,2.907360753E0,2.936715794E0
1.888152917E0,-7.042193574E-1,-5.536365974E-1,2.717120422E0,2.860975668E0
1.898170917E0,-1.196268402E0,-1.420733655E0,1.146388729E0,2.182601504E0
1.908189917E0,-1.619228792E0,-2.270402502E0,-6.918519115E-1,2.873201780E0
1.918208917E0,-1.718486448E0,-2.888191826E0,-1.362051584E0,3.626297314E0
1.928226917E0,-1.432481296E0,-2.991963531E0,-9.253113520E-1,3.443842263E0
1.938245917E0,-9.060465306E-1,-2.566096782E0,-3.142035683E-1,2.739433681E0
1.948263917E0,-4.987078536E-1,-1.850127445E0,-7.136639994E-2,1.917491655E0
1.958282917E0,-3.145082814E-1,-1.028397764E0,-1.826728642E-1,1.090819323E0
1.968300917E0,-1.798860812E-1,-2.372899514E-1,-6.117509043E-1,6.803709960E-1
1.978319917E0,-1.132026798E-1,5.420129174E-1,-1.022280407E0,1.162604868E0
1.988337917E0,-3.032833815E-1,1.352736384E0,-1.260733370E0,1.873853026E0
1.998356917E0,-5.534424698E-1,1.999686942E0,-1.670578748E0,2.663809263E0
2.008374917E0,-5.223516548E-1,2.154784922E0,-2.087695724E0,3.045393693E0
2.018393917E0,-7.958820641E-2,1.627150893E0,-2.235806866E0,2.766367049E0
2.028412917E0,4.179174596E-1,6.756194562E-1,-2.214174507E0,2.352378668E0
2.038430917E0,6.929897797E-1,-2.457403475E-1,-2.233642226E0,2.351548585E0
2.048449917E0,7.880713534E-1,-8.122987068E-1,-2.096627930E0,2.382589836E0
2.058467917E0,6.481416357E-1,-1.042379626E0,-1.605364752E0,2.020851021E0
2.068486917E0,1.868150318E-1,-1.104127977E0,-1.304224960E0,1.719011690E0
2.078504917E0,-3.715244812E-1,-1.012124963E0,-1.460487120E0,1.815337437E0
2.088523917E0,-7.572658825E-1,-8.299473578E-1,-1.704178019E0,2.041197431E0
2.098541917E0,-9.313339841E-1,-5.334280354E-1,-1.513338933E0,1.855295983E0
2.108560917E0,-9.845407230E-1,-1.936580282E-1,-9.431032598E-1,1.377050335E0
2.118578917E0,-1.025853056E0,3.042247832E-2,-3.050632739E-1,1.070683716E0
2.128597917E0,-9.628270876E-1,2.212919694E-1,-1.584267998E-1,1.000552441E0
2.138616917E0,-7.202366352E-1,3.465638870E-1,-3.995764983E-1,8.935931493E-1
2.148634917E0,-3.772272706E-1,4.888927174E-1,-5.846490598E-1,8.503711107E-1
2.158653917E0,5.004339516E-2,6.313016546E-1,-6.018854821E-1,8.736774313E-1
2.168671917E0,5.702920988E-1,7.087959731E-1,-4.786016178E-1,1.027951515E0
2.178690917E0,1.058359482E0,8.151889855E-1,-2.671943847E-1,1.362369522E0
2.188708917E0,1.414339725E0,9.481646097E-1,-9.287483454E-2,1.705285524E0
2.198727917E0,1.540642799E0,1.035498038E0,7.086127359E-2,1.857648444E0
2.208745917E0,1.635747177E0,1.062529131E0,2.016190489E-1,1.960940392E0
2.218764917E0,1.770999414E0,9.221070778E-1,2.894558859E-1,2.017549280E0
2.228782917E0,1.838025755E0,7.253342378E-1,3.548090092E-1,2.007570140E0
2.238801917E0,1.767931965E0,5.811027235E-1,3.845163731E-1,1.900293832E0
2.248820917E0,1.561730197E0,4.233378285E-1,4.897966969E-1,1.690596620E0
2.258838917E0,1.339451803E0,3.033740133E-1,6.620182478E-1,1.524609814E0
2.268857917E0,1.177433643E0,2.142606926E-1,8.515229988E-1,1.468791696E0
2.278875917E0,1.064235641E0,2.423764443E-1,1.019498302E0,1.493559717E0
2.288894917E0,9.424495411E-1,3.849368244E-1,1.106279022E0,1.503409715E0
2.298912917E0,8.386816362E-1,5.885012054E-1,1.088535208E0,1.494867704E0
2.308931917E0,7.491683659E-1,7.077347034E-1,1.051449827E0,1.472307165E0
2.318949917E0,6.462556162E-1,7.176299465E-1,1.059435954E0,1.433542327E0
2.328968917E0,5.442623413E-1,6.672503364E-1,1.054982715E0,1.361775692E0
2.338986917E0,4.371790650E-1,5.943267864E-1,1.053272989E0,1.285975837E0
2.349005917E0,3.848546711E-1,5.296290994E-1,1.086749541E0,1.268717725E0
2.359024917E0,3.720989701E-1,4.839272618E-1,1.160263002E0,1.311050522E0
2.369042917E0,3.904878786E-1,4.823356497E-1,1.354012831E0,1.489456011E0
2.379061917E0,4.187539038E-1,5.149584353E-1,1.667638768E0,1.794869378E0
2.389079917E0,4.133987314E-1,6.286142743E-1,1.915558373E0,2.058013191E0
2.399098917E0,2.651250368E-1,8.306168640E-1,1.875937639E0,2.068660844E0
2.409116917E0,5.840959132E-2,1.014411224E0,1.562043900E0,1.863443844E0
2.419135917E0,9.915386707E-2,9.426506853E-1,9.676709211E-1,1.354551149E0
2.429153917E0,5.371547583E-1,6.008049166E-1,1.568433007E-1,8.210369073E-1
2.439172917E0,1.198537414E0,1.081617951E-1,-3.925282645E-1,1.265807783E0
2.449190917E0,1.957689023E0,-5.710227084E-1,-4.243323668E-1,2.082947720E0
2.459209917E0,2.515388266E0,-1.223473742E0,-1.061538613E-1,2.799166799E0
2.469228917E0,2.650705408E0,-1.711970018E0,2.448977637E-1,3.164973210E0
2.479246917E0,2.385771283E0,-1.871393183E0,4.908490495E-1,3.071636347E0
2.489265917E0,1.791731302E0,-1.583989086E0,7.175105171E-1,2.496826751E0
2.499283917E0,1.093515281E0,-1.038615189E0,1.079506814E0,1.854678447E0
2.509302917E0,3.341312447E-1,-7.839946747E-1,1.682408835E0,1.885945605E0
2.519320917E0,-6.443871385E-1,-1.204692485E0,1.286408494E0,1.876530197E0
2.529339917E0,-2.013226755E0,-2.054295843E0,-8.252842033E-1,2.992374875E0
2.539357917E0,-3.589503363E0,-2.762277884E0,-2.661199991E0,5.253256027E0
2.549376917E0,-4.585448788E0,-2.995496419E0,-2.692472069E0,6.103175012E0
2.559395917E0,-4.670481336E0,-2.744940305E0,-1.868880196E0,5.730689869E0
2.569413917E0,-4.113040833E0,-2.188339169E0,-1.517712650E0,4.899937234E0
2.579432917E0,-3.294523612E0,-1.680347106E0,-2.180578744E0,4.293294293E0
2.589450917E0,-2.421266221E0,-9.719569302E-1,-3.258190476E0,4.174090986E0
2.599469917E0,-1.659958450E0,-1.497618109E-1,-3.542991686E0,3.915441322E0
2.609487917E0,-1.095338151E0,6.321898466E-1,-2.843484600E0,3.112046647E0
2.619506917E0,-6.725701332E-1,1.418897045E0,-1.794283612E0,2.384339130E0
2.629524917E0,-3.570681176E-1,2.060899104E0,-1.018927613E0,2.326588971E0
2.639543917E0,-2.341076043E-1,2.589376886E0,-6.799294388E-1,2.687374755E0
2.649561917E0,-3.298963988E-1,2.741935421E0,-6.378819649E-1,2.834419674E0
2.659580917E0,-5.424327475E-1,2.486810292E0,-4.603314078E-1,2.586573741E0
2.669599917E0,-8.457681692E-1,1.973149939E0,2.815799788E-2,2.146960025E0
2.679617917E0,-1.259753084E0,1.330514041E0,5.489202332E-1,1.912735964E0
2.689636917E0,-1.757170457E0,6.951345384E-1,8.814794540E-1,2.085153728E0
2.699654917E0,-2.085606806E0,7.518876135E-2,9.073101870E-1,2.275658339E0
2.709673917E0,-2.190832129E0,-4.309737074E-1,8.078337729E-1,2.374463973E0
2.719691917E0,-2.132872481E0,-7.071336097E-1,8.001797676E-1,2.385261123E0
2.729710917E0,-1.972813431E0,-6.993451184E-1,8.927762747E-1,2.275549583E0
2.739728917E0,-1.870630414E0,-4.167766678E-1,9.372209609E-1,2.133387932E0
2.749747917E0,-1.785299950E0,-3.151064515E-2,5.354342151E-1,1.864129456E0
2.759766917E0,-1.675797388E0,2.677837658E-1,-1.407122214E-1,1.702881370E0
2.769784917E0,-1.472870061E0,3.905542445E-1,-7.161435843E-1,1.683668752E0
2.779803917E0,-1.076604841E0,4.497701669E-1,-9.901441097E-1,1.530279891E0
2.789821917E0,-5.629327932E-1,4.879396212E-1,-8.302939515E-1,1.115511743E0
2.799840917E0,-1.148249897E-1,6.358531272E-1,-2.485218680E-1,6.922839710E-1
2.809858917E0,1.305148235E-1,8.655691803E-1,4.248866098E-1,9.730224849E-1
2.819877917E0,2.700676882E-1,1.047228722E0,8.351414394E-1,1.366413472E0
2.829895917E0,3.471486086E-1,1.157710108E0,1.047727489E0,1.599542979E0
2.839914917E0,2.939059094E-1,1.203593209E0,1.136974565E0,1.681585103E0
2.849932917E0,1.984284791E-1,1.214879504E0,1.077169390E0,1.635726128E0
2.859951917E0,1.067739585E-1,1.203248808E0,1.015544634E0,1.578144250E0
2.869974417E0,8.252584755E-2,1.186305916E0,1.130489199E0,1.640773619E0
2.879992417E0,1.291152924E-1,1.181756197E0,1.400258460E0,1.836829394E0
2.890011417E0,2.779082197E-1,1.154059106E0,1.714857373E0,2.085622499E0
2.900029417E0,4.728704694E-1,1.117452028E0,1.979145966E0,2.321491820E0
2.910048417E0,5.958961791E-1,9.813364488E-1,2.240832255E0,2.517824990E0
2.920066417E0,5.061686084E-1,7.532406592E-1,2.493259771E0,2.653285216E0
2.930085417E0,2.620356604E-1,4.969969583E-1,2.537492788E0,2.598949463E0
2.940103417E0,6.173811883E-2,3.322282684E-1,2.334641182E0,2.358969408E0
2.950122417E0,-4.969636291E-2,2.643672377E-1,2.089186618E0,2.106433120E0
2.960141417E0,-1.405854830E-1,4.396965837E-1,1.953280954E0,2.007088401E0
2.970159417E0,-3.593122789E-1,8.317483002E-1,1.940220905E0,2.141347172E0
2.980178417E0,-7.149624467E-1,1.334906470E0,1.577854918E0,2.186955126E0
2.990196417E0,-1.202820207E0,1.778003209E0,1.020507750E0,2.376869355E0
3.000215417E0,-1.836658676E0,2.047626509E0,9.060987170E-1,2.896049775E0
3.010233417E0,-2.472050458E0,2.178139286E0,1.084853801E0,3.468750782E0
3.020252417E0,-3.027674232E0,2.169356768E0,1.223654860E0,3.920491201E0
3.030270417E0,-3.350400190E0,1.884026678E0,1.185945143E0,4.022586709E0
3.040289417E0,-3.449617499E0,1.183563572E0,1.201573434E0,3.839851864E0
3.050308417E0,-3.288874910E0,1.717274612E-1,1.550677937E0,3.640163534E0
3.060326417E0,-2.775919146E0,-8.136961913E-1,2.051735201E0,3.546469502E0
3.070345417E0,-2.193386486E0,-1.503007488E0,2.707225764E0,3.794607637E0
3.080363417E0,-1.975571563E0,-2.017246131E0,3.449606974E0,4.457796903E0
3.090382417E0,-2.392444125E0,-2.555211021E0,2.800661931E0,4.482923098E0
3.100400417E0,-3.222764243E0,-3.237963495E0,-9.148071215E-2,4.569352873E0
3.110419417E0,-4.025158643E0,-4.084373104E0,-2.583667080E0,6.289621717E0
3.120437417E0,-4.276872214E0,-4.604122748E0,-3.592601802E0,7.238533686E0
3.130456417E0,-3.880709028E0,-4.247623272E0,-3.706707877E0,6.844113478E0
3.140474417E0,-3.108572799E0,-2.984909450E0,-3.702791412E0,5.681863560E0
3.150493417E0,-2.250385144E0,-1.214986508E0,-4.106310103E0,4.837582885E0
3.160512417E0,-1.302744445E0,3.616280687E-1,-4.320568457E0,4.527165751E0
3.170530417E0,-1.573292774E-1,1.452616768E0,-3.853318623E0,4.121032927E0
3.180549417E0,9.796542048E-1,2.202726828E0,-2.699018612E0,3.618898908E0
3.190567417E0,1.867466778E0,2.635020837E0,-1.188494675E0,3.441407643E0
3.200586417E0,2.316237071E0,2.746640090E0,-1.368013843E-1,3.595511170E0
3.210604417E0,2.281747270E0,2.926462437E0,7.908242226E-2,3.711712142E0
3.220623417E0,1.912908999E0,2.998915286E0,-5.375509071E-1,3.597453921E0
3.230641417E0,1.383750308E0,2.659116043E0,-1.601876303E0,3.398774887E0
3.240660417E0,7.772341239E-1,1.956731542E0,-2.039997647E0,2.931634631E0
3.250679417E0,1.900386018E-1,1.117933254E0,-1.326750773E0,1.745324338E0
3.260697417E0,-3.093618545E-1,4.068030721E-1,-2.294680580E-1,5.602223542E-1
3.270716417E0,-5.446763241E-1,-1.200497693E-1,3.276078717E-1,6.468470938E-1
3.280734417E0,-7.140172443E-1,-6.351105309E-1,2.564892840E-1,9.894305253E-1
3.290753417E0,-1.105523123E0,-8.485397494E-1,-9.929171517E-2,1.397161382E0
3.300771417E0,-1.704150537E0,-5.382057953E-1,-5.076505121E-1,1.857822266E0
3.310790417E0,-2.284344603E0,-8.040447772E-2,-9.245102104E-1,2.465646827E0
3.320808417E0,-2.578707472E0,2.439446676E-1,-1.139663115E0,2.829853926E0
3.330827417E0,-2.333650079E0,3.079009277E-1,-8.877721544E-1,2.515723568E0
3.340846417E0,-1.658989274E0,2.786701119E-1,-4.309762656E-1,1.736560677E0
3.350864417E0,-8.806321925E-1,3.990005475E-1,-1.703889605E-1,9.817061135E-1
3.360883417E0,-1.616918850E-1,7.044099766E-1,-3.570299645E-1,8.061067400E-1
3.370901417E0,3.874020106E-1,1.060342857E0,-6.851018127E-1,1.320519514E0
3.380920417E0,8.246722922E-1,1.323994396E0,-7.897891923E-1,1.748374250E0
3.390938417E0,1.188051894E0,1.533046973E0,-6.148628656E-1,2.034639199E0
3.400957417E0,1.373053997E0,1.678402907E0,-1.630344788E-1,2.174601995E0
3.410975417E0,1.345117755E0,1.771021049E0,3.094557023E-1,2.245355242E0
3.420994417E0,1.069251090E0,1.790134428E0,7.399723037E-1,2.212563710E0
3.431013417E0,4.948454753E-1,1.725454867E0,1.147905496E0,2.130669747E0
3.441031417E0,-1.467990267E-1,1.500318938E0,1.305858672E0,1.994435695E0
3.451050417E0,-6.207342741E-1,1.011902184E0,1.243007974E0,1.718815258E0
3.461068417E0,-1.020579160E0,4.741881394E-1,1.045962581E0,1.536383394E0
3.471087417E0,-1.441847658E0,1.029951954E-1,9.167522708E-1,1.711714756E0
3.481105417E0,-1.803386265E0,-3.850800812E-2,7.833889762E-1,1.966566341E0
3.491124417E0,-1.954152627E0,1.190668523E-1,7.288446137E-1,2.089043771E0
3.501142417E0,-1.839970831E0,6.109264469E-1,6.220862965E-1,2.036102931E0
3.511161417E0,-1.351293876E0,1.066206445E0,3.959268124E-1,1.766224608E0
3.521180417E0,-6.284908980E-1,1.320677855E0,1.145144295E-1,1.467073400E0
3.531198417E0,3.048796713E-2,1.508896219E0,-9.911490999E-2,1.512455315E0
3.541217417E0,4.144260871E-1,1.661092225E0,-1.402899063E-1,1.717747834E0
3.551235417E0,5.041124350E-1,1.689157106E0,5.598606661E-2,1.763665364E0
3.561254417E0,3.844634923E-1,1.450740396E0,3.193059218E-1,1.534410684E0
3.571272417E0,3.104792574E-1,8.900877249E-1,3.172614428E-1,9.946398094E-1
3.581291417E0,5.730467221E-1,8.999391139E-2,-1.788474695E-1,6.070155411E-1
3.591309417E0,9.440431997E-1,-6.086548036E-1,-8.948919435E-1,1.436144082E0
3.601328417E0,1.041854838E0,-1.080090659E0,-1.114068975E0,1.869012310E0
3.611347417E0,8.216124442E-1,-1.273086197E0,-5.484794994E-1,1.611404740E0
3.621365417E0,3.152406451E-1,-1.139787222E0,2.745465092E-1,1.214029391E0
3.631384417E0,-2.570140716E-1,-7.862090153E-1,8.645467946E-1,1.196504078E0
3.641402417E0,-7.977321231E-1,-4.708973265E-1,1.236712862E0,1.545179450E0
3.651421417E0,-1.370850474E0,-2.384798598E-1,1.384545822E0,1.962924043E0
3.661439417E0,-2.102294759E0,-3.654100478E-2,8.713004749E-1,2.275992754E0
3.671458417E0,-3.200296609E0,1.448454720E-1,-2.198833752E-1,3.211109979E0
3.681476417E0,-4.409300831E0,2.560396332E-1,-1.259307672E0,4.592749278E0
3.691495417E0,-4.999233727E0,2.658378124E-2,-1.634124867E0,5.259601567E0
3.701514417E0,-4.729809818E0,-4.971168262E-1,-2.078356551E0,5.190163004E0
3.711532417E0,-3.866470181E0,-8.437602353E-1,-3.201954002E0,5.090582720E0
3.721551417E0,-2.908333730E0,-8.430702639E-1,-4.129883738E0,5.121046010E0
3.731569417E0,-2.185210909E0,-6.571849394E-1,-3.761499796E0,4.399536279E0
3.741588417E0,-1.752723065E0,-3.386719000E-1,-2.050021967E0,2.718331632E0
3.751606417E0,-1.576428343E0,1.315459800E-1,-1.802486086E-1,1.592143281E0
3.761625417E0,-1.560473338E0,5.921498680E-1,4.957289895E-1,1.741110490E0
3.771644417E0,-1.539243560E0,8.003288716E-1,-1.822014324E-1,1.744418070E0
3.781662417E0,-1.575510330E0,7.467976123E-1,-1.141952154E0,2.084225083E0
3.791681417E0,-1.764745232E0,5.595422852E-1,-1.573752365E0,2.429837404E0
3.801699417E0,-1.911379952E0,3.344706756E-1,-1.438150464E0,2.415268249E0
3.811718417E0,-1.909421135E0,1.248205125E-1,-7.691778302E-1,2.062305449E0
3.821736417E0,-1.881990677E0,1.189265192E-2,1.667004637E-1,1.889396567E0
3.831755417E0,-1.879145130E0,9.302510798E-2,8.334270358E-1,2.057775671E0
3.841773417E0,-1.847882114E0,2.668698460E-1,1.049706187E0,2.141908238E0
3.851792417E0,-1.850974122E0,3.252045929E-1,1.023800537E0,2.140100644E0
3.861811417E0,-2.089357502E0,5.050362951E-1,7.618081458E-1,2.280532412E0
3.871825542E0,-2.236204769E0,8.508710343E-1,9.662743136E-2,2.394562621E0
3.881844542E0,-2.128478299E0,1.159240324E0,-4.396872282E-1,2.463246406E0
3.891862542E0,-1.806334431E0,1.368990474E0,-5.568445261E-1,2.333892633E0
3.901881542E0,-1.379185387E0,1.456119835E0,-2.998263614E-1,2.027888841E0
3.911899542E0,-8.913176867E-1,1.529328729E0,1.056533396E-1,1.773261461E0
3.921918542E0,-4.295180431E-1,1.569754039E0,3.885346162E-1,1.673192350E0
3.931936542E0,-7.746946782E-2,1.554832529E0,5.032242429E-1,1.636074678E0
3.941955542E0,1.780904013E-1,1.544411037E0,4.731732090E-1,1.625058315E0
3.951974542E0,3.620057988E-1,1.485416724E0,4.754889987E-1,1.601124864E0
3.961992542E0,5.550758895E-1,1.354080659E0,6.773367834E-1,1.612584507E0
3.972011542E0,6.815271905E-1,1.221080477E0,1.004523582E0,1.721796872E0
3.982029542E0,7.010089436E-1,1.124861035E0,1.257455567E0,1.826997643E0
3.992048542E0,5.847136715E-1,9.840939957E-1,1.416102076E0,1.820899821E0
4.002066542E0,3.617151922E-1,7.553626138E-1,1.635885025E0,1.837805858E0
4.012085542E0,8.406980485E-2,5.112518853E-1,1.814807631E0,1.887318987E0
4.022103542E0,-2.265079781E-1,2.874070215E-1,1.887055535E0,1.922208952E0
4.032122542E0,-5.660674855E-1,1.256291825E-1,1.949526164E0,2.033929044E0
4.042141542E0,-8.126863772E-1,1.556236446E-2,1.958033717E0,2.120046549E0
4.052159542E0,-8.916655961E-1,-8.809415102E-3,1.903737788E0,2.102228034E0
4.062178542E0,-7.747598746E-1,8.597453535E-2,1.831538854E0,1.990522308E0
4.072196542E0,-6.159068128E-1,3.336935806E-1,1.844091510E0,1.972654584E0
4.082215542E0,-5.312771371E-1,7.225398535E-1,2.030743989E0,2.219964051E0
4.092233542E0,-5.039697629E-1,1.130196034E0,2.231103365E0,2.551303750E0
4.102252542E0,-5.840479660E-1,1.503657698E0,2.301973958E0,2.810904232E0
4.112271542E0,-8.232540500E-1,1.802442232E0,2.237592752E0,2.988873793E0
4.122289542E0,-1.132311849E0,1.970429229E0,2.101521027E0,3.095337154E0
4.132308542E0,-1.410453665E0,1.852316058E0,1.951743282E0,3.038051375E0
4.142326542E0,-1.549005779E0,1.426793709E0,1.801207885E0,2.771192710E0
4.152345542E0,-1.512580549E0,7.945904142E-1,1.664701419E0,2.385477868E0
4.162363542E0,-1.346535120E0,6.572153449E-2,1.684514856E0,2.157560300E0
4.172382542E0,-1.243624709E0,-5.488664389E-1,1.855810208E0,2.300410466E0
4.182400542E0,-1.246821089E0,-9.110985249E-1,2.062989191E0,2.576933789E0
4.192419542E0,-1.281798841E0,-1.140180155E0,2.222917410E0,2.807913970E0
4.202438542E0,-1.420592737E0,-1.208861550E0,2.480202938E0,3.103358920E0
4.212456542E0,-1.651413329E0,-1.128383982E0,2.616517030E0,3.293414302E0
4.222475542E0,-1.808311667E0,-9.114984745E-1,2.502167419E0,3.218953611E0
4.232493542E0,-1.853825809E0,-6.322255147E-1,2.442241937E0,3.130642891E0
4.242512542E0,-1.849335732E0,-4.130543303E-1,2.870388808E0,3.439445949E0
4.252530542E0,-2.143427290E0,-3.178236526E-1,3.480456884E0,4.099862503E0
4.262549542E0,-2.632328779E0,-3.670981389E-1,2.526549139E0,3.667065093E0
4.272568542E0,-3.116123309E0,-4.662476206E-1,3.511885960E-1,3.170322499E0
4.282586542E0,-3.481139254E0,-4.659529209E-1,-9.658832811E-1,3.642577816E0
4.292605542E0,-3.296148553E0,-4.668376046E-1,-1.081988665E0,3.500461699E0
4.302623542E0,-2.542436609E0,-5.445278049E-1,-6.619667923E-1,2.683038291E0
4.312642542E0,-1.792550497E0,-5.722038460E-1,-4.564678600E-1,1.936237959E0
4.322660542E0,-1.411753501E0,-3.554937547E-1,-9.948065333E-1,1.763253753E0
4.332679542E0,-1.322236138E0,1.751977837E-1,-2.047712171E0,2.443793732E0
4.342697542E0,-1.246697128E0,1.023764430E0,-2.954855347E0,3.366528993E0
4.352716542E0,-9.457152110E-1,1.904282602E0,-3.318848906E0,3.941500673E0
4.362735542E0,-4.250189030E-1,2.488882545E0,-3.142209784E0,4.030962629E0
4.372753542E0,1.831195915E-1,2.635161754E0,-2.546118600E0,3.668832264E0
4.382772542E0,6.629625732E-1,2.259413245E0,-1.690401686E0,2.898607501E0
4.392790542E0,8.838037223E-1,1.586560106E0,-9.022128037E-1,2.027873254E0
4.402809542E0,7.797168517E-1,8.290948337E-1,-4.798478056E-1,1.235156075E0
4.412827542E0,4.081075859E-1,1.255806506E-1,-5.727314110E-1,7.143833499E-1
4.422846542E0,-9.532774150E-2,-3.709660721E-1,-9.874296860E-1,1.059113115E0
4.432865542E0,-5.544645631E-1,-6.299439311E-1,-1.341669359E0,1.582509709E0
4.442883542E0,-8.865039665E-1,-7.352663183E-1,-1.269334478E0,1.713976621E0
4.452902542E0,-1.025326222E0,-6.888821107E-1,-8.090920937E-1,1.476645672E0
4.462920542E0,-9.794641703E-1,-4.909866053E-1,-3.256853803E-1,1.143017443E0
4.472939542E0,-8.569410288E-1,-1.673525745E-1,-8.423381925E-2,8.771830752E-1
4.482957542E0,-7.354797417E-1,1.821583092E-1,-1.538716726E-1,7.731678936E-1
4.492976542E0,-6.096005908E-1,4.228004694E-1,-4.425932944E-1,8.638645388E-1
4.502994542E0,-3.725816578E-1,4.657190323E-1,-7.069014752E-1,9.248897255E-1
4.513013542E0,-6.131331861E-2,3.247034866E-1,-5.861180265E-1,6.728491794E-1
4.523032542E0,2.887337548E-1,5.893291712E-2,-2.463562055E-1,3.840984898E-1
4.533050542E0,5.998681927E-1,-2.320128393E-1,1.653358698E-2,6.433857052E-1
4.543069542E0,8.466996306E-1,-4.270812160E-1,-1.643549994E-2,9.484559848E-1
4.553087542E0,9.825529620E-1,-4.873929065E-1,-1.290724616E-1,1.104364917E0
4.563106542E0,9.711909449E-1,-4.225601488E-1,-1.107674606E-1,1.064912373E0
4.573124542E0,8.281633723E-1,-2.305393410E-1,1.401425564E-1,8.710010879E-1
4.583143542E0,6.231941977E-1,2.270239949E-2,5.006177004E-1,7.996902456E-1
4.593162542E0,3.370536831E-1,3.340631247E-1,8.976822348E-1,1.015399799E0
4.603180542E0,-5.527402192E-2,6.536397725E-1,1.203776811E0,1.370904366E0
4.613199542E0,-4.268090281E-1,8.936159348E-1,1.229331629E0,1.578597998E0
4.623217542E0,-6.616150823E-1,9.810335630E-1,1.074323111E0,1.598227617E0
4.633236542E0,-7.129030573E-1,9.341880101E-1,1.013819340E0,1.552020509E0
4.643254542E0,-4.472865620E-1,7.893939936E-1,9.474316612E-1,1.311805968E0
4.653273542E0,-1.149027577E-1,6.473616171E-1,1.031229132E0,1.222993553E0
4.663291542E0,1.831587678E-1,5.668407798E-1,1.170481450E0,1.313347794E0
4.673310542E0,5.279848623E-1,5.068635499E-1,1.232755612E0,1.433654447E0
4.683329542E0,9.378200081E-1,4.193026650E-1,1.206924806E0,1.584925418E0
4.693347542E0,1.308643116E0,2.681492168E-1,1.228777167E0,1.815032818E0
4.703366542E0,1.559139004E0,1.220103407E-1,1.327999738E0,2.051678401E0
4.713384542E0,1.662118119E0,2.443960726E-2,1.315385102E0,2.119781098E0
4.723403542E0,1.561466196E0,-3.595686793E-2,1.381505124E0,2.085192074E0
4.733421542E0,1.244454429E0,-4.622282445E-2,1.545879858E0,1.985081336E0
4.743440542E0,7.991126508E-1,1.085301697E-2,1.768229734E0,1.940447168E0
4.753459542E0,4.290727776E-1,7.208798289E-2,1.795615754E0,1.847575725E0
4.763477542E0,2.224049869E-1,1.314734745E-1,1.642063193E0,1.662263752E0
4.773496542E0,1.843299651E-1,2.221906865E-1,1.559062990E0,1.585567294E0
4.783514542E0,2.386391965E-1,3.399518555E-1,1.552964344E0,1.607549123E0
4.793533542E0,2.825167027E-1,3.850987923E-1,1.648628154E0,1.716418235E0
4.803551542E0,2.878800613E-1,3.150433016E-1,1.705172045E0,1.757765319E0
4.813570542E0,2.439475912E-1,2.246453476E-1,1.648047087E0,1.681081545E0
4.823589542E0,1.480348358E-1,2.120744187E-1,1.513132088E0,1.535076085E0
4.833607542E0,1.735541314E-1,2.343330145E-1,1.381420193E0,1.411862156E0
4.843626542E0,4.450783610E-1,2.234162629E-1,1.256368715E0,1.351470282E0
4.853644542E0,9.324291676E-1,1.380866754E-1,1.098122302E0,1.447191996E0
4.863663542E0,1.433986662E0,1.444554627E-2,1.007130564E0,1.752380778E0
4.873682542E0,1.812907871E0,-1.207157671E-1,1.052493116E0,2.099749748E0
4.883701542E0,1.904455680E0,-3.352407539E-1,1.265951425E0,2.311270389E0
4.893719542E0,1.721117987E0,-6.004400504E-1,1.493187966E0,2.356350076E0
4.903738542E0,1.331413343E0,-9.044338685E-1,1.613035129E0,2.278715524E0
4.913757542E0,8.908095637E-1,-1.175441789E0,1.616364680E0,2.188113310E0
4.923775542E0,4.610441834E-1,-1.359552484E0,1.554713539E0,2.116147179E0
4.933794542E0,5.809647292E-2,-1.374579243E0,1.603252007E0,2.112642964E0
4.943812542E0,-2.776065034E-1,-1.274871937E0,2.007967477E0,2.394639266E0
4.953831542E0,-4.519353908E-1,-1.272807870E0,2.813345419E0,3.120768802E0
4.963849542E0,-5.342729580E-1,-1.667525917E0,2.872355519E0,3.364003048E0
4.973868542E0,-9.800886530E-1,-2.277125630E0,7.291580245E-1,2.584094876E0
4.983887542E0,-1.866765697E0,-2.837514592E0,-1.701599104E0,3.798913363E0
4.993905542E0,-2.341585336E0,-3.000382352E0,-2.124577914E0,4.358801149E0
5.003924542E0,-2.009618146E0,-2.458457143E0,-7.962062922E-1,3.273609793E0
5.013942542E0,-1.102620565E0,-1.688462457E0,1.217516014E-1,2.020272514E0
5.023961542E0,-3.130251351E-1,-1.126724542E0,-5.995761243E-1,1.314147807E0
5.033979542E0,9.217229158E-2,-5.373316365E-1,-2.121806626E0,2.190726906E0
5.043998542E0,3.358623129E-1,9.936524391E-2,-3.198041046E0,3.217163887E0
5.054017542E0,5.524022502E-1,7.141835976E-1,-3.452741082E0,3.568841189E0
5.064035542E0,5.779411340E-1,1.356633554E0,-2.833962701E0,3.194654151E0
5.074054542E0,2.951417184E-1,1.842623713E0,-1.462774551E0,2.371092611E0
5.084072542E0,-2.435254222E-1,1.809581682E0,-3.717659712E-2,1.826272870E0
5.094091542E0,-1.005073805E0,1.220926695E0,7.469242045E-1,1.748922844E0
5.104109542E0,-1.820917679E0,4.784501749E-1,6.641817176E-1,1.996445120E0
5.114128542E0,-2.457229228E0,-2.652729714E-1,1.044455972E-1,2.473712617E0
5.124147542E0,-2.830301175E0,-7.289390463E-1,-3.205053319E-1,2.940183760E0
5.134165542E0,-2.741260944E0,-1.091179318E0,-4.848252480E-1,2.990023309E0
5.144184542E0,-2.048392494E0,-1.389259847E0,-3.105798295E-1,2.494476812E0
5.154202542E0,-1.230810243E0,-1.385964357E0,4.877210815E-1,1.916680179E0
5.164221542E0,-5.782288170E-1,-1.059215514E0,1.416906360E0,1.861158162E0
5.174239542E0,-9.004244328E-2,-5.472058296E-1,1.637837849E0,1.729177458E0
5.184258542E0,2.967672443E-1,-4.255311191E-2,1.000855039E0,1.044792982E0
5.194276542E0,6.916329333E-1,3.100924641E-1,1.841769142E-1,7.800221705E-1
5.204295542E0,1.127800722E0,4.639122427E-1,-4.949032165E-1,1.316084432E0
5.214314542E0,1.527592691E0,5.568478882E-1,-9.199912629E-1,1.868154951E0
5.224332542E0,1.875078099E0,7.020050168E-1,-1.015935009E0,2.245184371E0
5.234351542E0,1.937659094E0,9.429594183E-1,-6.250100505E-1,2.243731889E0
5.244369542E0,1.722308480E0,1.203496730E0,-1.009673810E-1,2.103555393E0
5.254388542E0,1.390211482E0,1.378130842E0,2.577958444E-1,1.974434420E0
5.264406542E0,9.710248840E-1,1.429752985E0,5.381300738E-1,1.810156596E0
5.274425542E0,4.833931187E-1,1.448421391E0,9.045632382E-1,1.774775502E0
5.284444542E0,4.449292570E-2,1.413119996E0,1.252926460E0,1.889103612E0
5.294462542E0,-2.832549137E-1,1.314329533E0,1.484631297E0,2.002954207E0
5.304481542E0,-4.781829572E-1,1.170271681E0,1.574874884E0,2.019511240E0
5.314499542E0,-5.195183864E-1,9.557724220E-1,1.611231994E0,1.944085599E0
5.324518542E0,-4.934254789E-1,7.569092023E-1,1.722814264E0,1.945371233E0
5.334536542E0,-3.915886170E-1,4.818608558E-1,1.903961151E0,2.002648146E0
5.344555542E0,-2.417180479E-2,1.393917739E-1,1.963672918E0,1.968762472E0
5.354574542E0,4.580615187E-1,2.221825004E-2,1.890160407E0,1.944998810E0
5.364592542E0,9.132079080E-1,-1.649090230E-2,1.845280834E0,2.058951672E0
5.374611542E0,1.338999521E0,-3.402143955E-2,1.741173352E0,2.196761666E0
5.384629542E0,1.759225169E0,-3.259413421E-2,1.606363456E0,2.382506899E0
5.394648542E0,2.043517086E0,8.469107151E-3,1.497319755E0,2.533377243E0
5.404666542E0,2.129044894E0,1.496974915E-1,1.371637509E0,2.537051626E0
5.414685542E0,1.981062098E0,4.546075684E-1,1.279249309E0,2.401614847E0
5.424704542E0,1.657192425E0,9.135046542E-1,1.218786468E0,2.250826057E0
5.434722542E0,1.116259488E0,1.323558778E0,1.195657222E0,2.104148112E0
5.444741542E0,4.557197088E-1,1.541866329E0,1.088372655E0,1.941542496E0
5.454759542E0,-2.883387753E-1,1.599287741E0,7.832569022E-1,1.803982234E0
5.464778542E0,-1.260278456E0,1.588136516E0,4.455461383E-1,2.075810863E0
5.474796542E0,-2.258473305E0,1.500656907E0,3.290112765E-1,2.731468697E0
5.484815542E0,-2.890183972E0,1.030952997E0,5.726061344E-1,3.121522907E0
5.494834542E0,-3.088284130E0,1.434485722E-1,1.162220796E0,3.302852334E0
5.504852542E0,-2.838298119E0,-9.629884708E-1,1.738887091E0,3.465113465E0
5.514871542E0,-2.177221273E0,-1.914387175E0,2.111433080E0,3.586547139E0
5.524889542E0,-1.392399217E0,-2.483573858E0,2.407140955E0,3.728436974E0
5.534908542E0,-6.189809865E-1,-2.579969886E0,2.648937210E0,3.749166629E0
5.544926542E0,7.395967662E-2,-2.476782317E0,3.104535881E0,3.972161089E0
5.554945542E0,3.002685571E-1,-2.521085501E0,3.886391644E0,4.642205653E0
5.564964542E0,-4.832314432E-2,-2.833878794E0,2.872292954E0,4.035253518E0
5.574982542E0,-7.813084638E-1,-3.215172218E0,-3.570040905E-1,3.327946398E0
5.585001542E0,-1.600150790E0,-3.308928813E0,-2.627531723E0,4.518120781E0
5.595019542E0,-1.781294607E0,-2.917748916E0,-2.663235991E0,4.333485336E0
5.605038542E0,-1.060949798E0,-2.214654563E0,-2.009780698E0,3.173251922E0
5.615056542E0,-4.539158428E-1,-1.340308127E0,-1.611153349E0,2.144360180E0
5.625075542E0,-7.858359629E-1,-4.168257844E-1,-1.913481296E0,2.110140413E0
5.635093542E0,-1.622342142E0,2.633667791E-1,-2.781491250E0,3.230797063E0
5.645112542E0,-1.804505714E0,6.448642713E-1,-3.175551485E0,3.708937588E0
5.655131542E0,-1.025515087E0,9.196717125E-1,-2.917773474E0,3.226589422E0
5.665149542E0,2.703021616E-1,9.975694889E-1,-2.309064292E0,2.529819370E0
5.675168542E0,1.675519060E0,6.721877253E-1,-1.779568363E0,2.534968248E0
5.685186542E0,2.644898538E0,2.436324263E-1,-1.312850918E0,2.962840287E0
5.695205542E0,2.935778221E0,1.769367456E-2,-1.096947012E0,3.134070767E0
5.705224542E0,2.537841867E0,4.282851577E-2,-1.263971704E0,2.835507025E0
5.715242542E0,1.593072150E0,2.273116779E-1,-1.489519569E0,2.192764926E0
5.725261542E0,5.305956441E-1,3.356108826E-1,-1.404013688E0,1.537992470E0
5.735279542E0,-1.317576492E-1,1.086974001E-1,-8.987123680E-1,9.148000455E-1
5.745298542E0,-3.680874878E-1,-2.854101974E-1,-2.205476189E-1,5.153529195E-1
5.755316542E0,-4.538977164E-1,-4.070971870E-1,1.928644149E-1,6.394903746E-1
5.765335542E0,-4.318817800E-1,-2.866919070E-1,7.848147467E-2,5.242837622E-1
5.775353542E0,-4.780350226E-1,6.057481527E-2,-3.668892471E-1,6.056356254E-1
5.785372542E0,-5.692469090E-1,4.558799225E-1,-8.275774813E-1,1.103065290E0
5.795391542E0,-6.941861200E-1,7.854494619E-1,-7.772434795E-1,1.304964617E0
5.805409542E0,-6.919875669E-1,8.603084403E-1,-2.457843478E-1,1.131100062E0
5.815428542E0,-4.107674843E-1,7.099291635E-1,2.313848484E-1,8.522137592E-1
5.825446542E0,9.617851138E-2,4.209913409E-1,3.526960082E-1,5.575647849E-1
5.835465542E0,7.039316744E-1,1.423159665E-1,2.034247787E-1,7.464283469E-1
5.845483542E0,1.237136931E0,5.368036330E-2,-6.886375509E-2,1.240214330E0
5.855502542E0,1.602989028E0,2.389762884E-1,-2.769194555E-1,1.644192165E0
5.865521542E0,1.869388758E0,5.114962989E-1,-2.628603371E-1,1.955847220E0
5.875538667E0,2.070752832E0,7.500194281E-1,-2.335494876E-2,2.202519441E0
5.885557667E0,2.211220786E0,8.982685643E-1,3.034878878E-1,2.405927820E0
5.895575667E0,2.238469980E0,9.129842520E-1,6.212281445E-1,2.496039363E0
5.905594667E0,2.175590485E0,7.777966261E-1,8.929984689E-1,2.477015909E0
5.915612667E0,2.037201801E0,6.048839343E-1,1.110891452E0,2.397948200E0
5.925631667E0,1.822309609E0,3.972984231E-1,1.302131656E0,2.274687934E0
5.935650667E0,1.453293583E0,3.187644696E-1,1.416020068E0,2.053968320E0
5.945668667E0,1.012970470E0,3.239141124E-1,1.480029538E0,1.822502938E0
5.955687667E0,4.688472927E-1,3.802941352E-1,1.669005847E0,1.774830113E0
5.965705667E0,4.506098270E-2,3.942251265E-1,1.816162869E0,1.859002827E0
5.975724667E0,-1.889565745E-1,3.610298985E-1,1.832709320E0,1.877463882E0
5.985742667E0,-3.060175395E-1,3.383093727E-1,1.754899106E0,1.813221122E0
5.995761667E0,-2.575526002E-1,3.421264350E-1,1.598760906E0,1.655119414E0
6.005780667E0,-4.655026853E-2,4.057160747E-1,1.416485799E0,1.474179256E0
6.015798667E0,2.727340186E-1,4.302509916E-1,1.364669967E0,1.456648166E0
6.025817667E0,5.345249730E-1,3.240187776E-1,1.422087286E0,1.553395430E0
6.035835667E0,6.586233544E-1,1.136932611E-1,1.441903646E0,1.589275622E0
6.045854667E0,8.614123946E-1,-1.826179004E-1,1.093027039E0,1.403598489E0
6.055872667E0,1.307977703E0,-4.938289368E-1,1.483741204E-1,1.405947214E0
6.065891667E0,1.837271172E0,-8.188744855E-1,-8.566814125E-1,2.186326559E0
6.075910667E0,2.341508737E0,-1.198718385E0,-1.315542538E0,2.941129222E0
6.085928667E0,2.858429790E0,-1.628388748E0,-8.788261338E-1,3.405085337E0
6.095947667E0,3.170679877E0,-2.113070301E0,-7.353560731E-2,3.810995207E0
6.105965667E0,3.108464918E0,-2.566641743E0,6.313156879E-1,4.080289632E0
6.115984667E0,2.629623857E0,-2.839508493E0,1.035240176E0,4.006176772E0
6.126003667E0,1.852828274E0,-2.772914554E0,1.293613579E0,3.577074758E0
6.136021667E0,9.685696381E-1,-2.450254669E0,1.844058620E0,3.215964440E0
6.146040667E0,1.719750908E-1,-2.203639578E0,2.803812411E0,3.570289464E0
6.156058667E0,-5.617753369E-1,-2.238046934E0,2.610723317E0,3.484296463E0
6.166077667E0,-1.578803190E0,-2.212516821E0,1.275020456E-1,2.721048873E0
6.176095667E0,-2.614018515E0,-1.799706320E0,-2.200081401E0,3.861656873E0
6.186114667E0,-2.916325119E0,-9.365520394E-1,-2.842137401E0,4.178495774E0
6.196133667E0,-2.371458760E0,1.310361028E-3,-2.397749012E0,3.372390649E0
6.206151667E0,-1.324314531E0,5.288379711E-1,-1.944027296E0,2.410958462E0
6.216170667E0,-3.477707523E-1,7.683638978E-1,-1.926991872E0,2.103479320E0
6.226188667E0,3.406815881E-1,1.003627789E0,-2.635116731E0,2.840276900E0
6.236207667E0,6.158381081E-1,1.252298761E0,-3.499512083E0,3.767504954E0
6.246225667E0,2.777135074E-1,1.466300422E0,-3.339239902E0,3.657551755E0
6.256244667E0,-4.188196850E-1,1.307036886E0,-2.204314639E0,2.596682187E0
6.266263667E0,-1.128265868E0,3.572485042E-1,-1.112027273E0,1.623950437E0
6.276281667E0,-1.898583029E0,-7.618869370E-1,-6.257264806E-1,2.139304291E0
6.286300667E0,-2.695564369E0,-1.691672578E0,-5.476301913E-1,3.229198385E0
6.296318667E0,-3.195981656E0,-2.384998573E0,-6.934983413E-1,4.047648316E0
6.306337667E0,-3.166419888E0,-2.765949935E0,-8.903577201E-1,4.297607570E0
6.316355667E0,-2.692553930E0,-2.676133779E0,-8.989567816E-1,3.901238517E0
6.326374667E0,-1.863811684E0,-2.082229747E0,-7.075344363E-1,2.882720883E0
6.336393667E0,-1.030879907E0,-1.140008832E0,-2.283606684E-1,1.553860391E0
6.346411667E0,-4.510118231E-1,-1.537408412E-2,3.442128678E-1,5.675654371E-1
6.356430667E0,-7.001806855E-2,1.015991727E0,7.438769281E-1,1.261148129E0
6.366448667E0,2.647084227E-1,1.812373143E0,5.769939581E-1,1.920335644E0
6.376467667E0,6.975380364E-1,2.413453463E0,3.811573304E-2,2.512522585E0
6.386485667E0,1.151813775E0,2.701830538E0,-3.212587456E-1,2.954618488E0
6.396504667E0,1.608277835E0,2.629519776E0,-4.356163967E-1,3.112987872E0
6.406523667E0,1.952456058E0,2.248033394E0,-3.328938277E-1,2.996090302E0
6.416541667E0,2.111275790E0,1.777640097E0,-1.524452443E-1,2.764186920E0
6.426560667E0,2.129710307E0,1.439048304E0,4.022299647E-2,2.570631032E0
6.436578667E0,1.982079222E0,1.297981303E0,2.214153457E-1,2.379583631E0
6.446597667E0,1.669714237E0,1.360573407E0,5.282396547E-1,2.217688608E0
6.456615667E0,1.326455781E0,1.411642989E0,8.976376498E-1,2.134941268E0
6.466634667E0,1.133164373E0,1.302695328E0,1.247740710E0,2.130242591E0
6.476653667E0,9.722478291E-1,1.092216030E0,1.545752388E0,2.127804536E0
6.486671667E0,7.799785146E-1,7.272749287E-1,1.691454623E0,1.999578468E0
6.496690667E0,6.017691225E-1,3.510937250E-1,1.749091505E0,1.882741080E0
6.506708667E0,4.675462872E-1,-5.044451416E-2,1.746413480E0,1.808619425E0
6.516727667E0,4.100930080E-1,-3.759917539E-1,1.783477957E0,1.868245085E0
6.526746667E0,3.987467784E-1,-5.735136223E-1,1.853372065E0,1.980632444E0
6.536764667E0,4.295844090E-1,-6.073087746E-1,1.846738106E0,1.990931527E0
6.546783667E0,4.226683223E-1,-3.327574414E-1,1.774505697E0,1.854250926E0
6.556801667E0,3.326214936E-1,1.691669655E-1,1.702153713E0,1.742579060E0
6.566820667E0,2.006489593E-1,7.161605412E-1,1.769872802E0,1.919790525E0
6.576838667E0,5.883731514E-2,1.251291870E0,1.936663313E0,2.306481728E0
6.586857667E0,-8.059831291E-2,1.607411277E0,1.825514614E0,2.433674322E0
6.596876667E0,-3.260360670E-1,1.747245101E0,1.413430921E0,2.270892320E0
6.606894667E0,-7.870317185E-1,1.786943602E0,7.488634336E-1,2.091263447E0
6.616913667E0,-1.587345972E0,1.866917725E0,2.509251467E-1,2.463333606E0
6.626931667E0,-2.485056420E0,1.918956190E0,1.638280191E-2,3.139771753E0
6.636950667E0,-3.255893105E0,1.640968448E0,2.038105488E-2,3.646098291E0
6.646968667E0,-3.696271474E0,8.942415869E-1,2.855373012E-1,3.813610150E0
6.656987667E0,-3.510851003E0,-4.202218473E-1,8.099669833E-1,3.627493306E0
6.667006667E0,-2.599875562E0,-1.858877218E0,1.542149334E0,3.548662004E0
6.677024667E0,-1.645515243E0,-2.520727651E0,2.295365435E0,3.785563470E0
6.687043667E0,-1.027439990E0,-2.388958892E0,2.881144177E0,3.881204618E0
6.697061667E0,-7.063190925E-1,-2.388915623E0,3.233608489E0,4.081914793E0
6.707080667E0,-6.931306976E-1,-3.011338280E0,1.936261024E0,3.646600493E0
6.717098667E0,-9.615863085E-1,-4.043080652E0,-4.954544628E-1,4.185286670E0
6.727117667E0,-1.264516518E0,-4.674541935E0,-1.927634043E0,5.212112559E0
6.737136667E0,-1.387560062E0,-4.156762803E0,-1.794726685E0,4.735508822E0
6.747154667E0,-1.083380302E0,-2.711280808E0,-1.419910952E0,3.246675778E0
6.757173667E0,-5.624243778E-1,-1.057016961E0,-1.437689996E0,1.870977969E0
6.767191667E0,-1.727431226E-1,2.309392905E-1,-1.569244162E0,1.595525112E0
6.777210667E0,1.155655396E-1,1.068185728E0,-1.623979948E0,1.947225465E0
6.787229667E0,9.448632717E-2,1.542038237E0,-1.222792103E0,1.970286811E0
6.797247667E0,-2.992879790E-1,1.739674126E0,-1.014928118E0,2.036201965E0
6.807266667E0,-6.567826509E-1,1.866998416E0,-1.487291926E0,2.475698651E0
6.817284667E0,-6.874372637E-1,1.835327557E0,-2.098655745E0,2.871472300E0
6.827303667E0,-1.536893857E-1,1.532689124E0,-2.443764260E0,2.888726386E0
6.837321667E0,7.855956423E-1,9.788028502E-1,-2.440471108E0,2.744287660E0
6.847340667E0,1.598803006E0,4.395159048E-1,-2.178435155E0,2.737686068E0
6.857359667E0,2.042863952E0,7.739316165E-2,-1.784524463E0,2.713634166E0
6.867377667E0,1.962351885E0,-1.338293177E-1,-1.598810023E0,2.534744306E0
6.877396833E0,1.396796908E0,-2.731164265E-1,-1.800758818E0,2.295292249E0
6.887414833E0,6.926518106E-1,-3.819880736E-1,-1.977251176E0,2.129601754E0
6.897433833E0,1.129939342E-1,-3.076424807E-1,-1.844280814E0,1.873174644E0
6.907451833E0,-3.859554094E-1,-1.239820218E-1,-1.317745038E0,1.378689633E0
6.917470833E0,-6.020772707E-1,6.013276577E-2,-7.467971738E-1,9.611550386E-1
6.927489833E0,-6.587233418E-1,8.252526283E-2,-3.120717466E-1,7.335636544E-1
6.937507833E0,-8.070309502E-1,1.192025077E-1,-1.763052464E-1,8.346207116E-1
6.947526833E0,-7.732749742E-1,1.792534125E-1,-4.952439630E-1,9.356027760E-1
6.957544833E0,-6.085758662E-1,1.213297248E-2,-6.657500871E-1,9.020725982E-1
6.967563833E0,-3.450997442E-1,-1.689377546E-1,-4.921439154E-1,6.243712292E-1
6.977582833E0,3.492483437E-2,-3.302291054E-1,-2.299685796E-1,4.039264211E-1
6.987600833E0,4.931839889E-1,-3.522415334E-1,-5.056774423E-2,6.081625124E-1
6.997619833E0,9.538276380E-1,-2.579247755E-1,6.420600928E-2,9.901690585E-1
7.007637833E0,1.371351580E0,-7.619623661E-2,1.727092818E-1,1.384283034E0
7.017656833E0,1.700022402E0,1.686974341E-1,2.638988757E-1,1.728634608E0
7.027674833E0,1.912908999E0,4.607828128E-1,2.977672644E-1,1.990026880E0
7.037693833E0,1.990772569E0,7.851144165E-1,2.821212117E-1,2.158511628E0
7.047712833E0,1.923907027E0,1.068666369E0,2.816276336E-1,2.218733914E0
7.057730833E0,1.799292921E0,1.240158187E0,3.716630602E-1,2.216659824E0
7.067749833E0,1.647096330E0,1.321560200E0,5.438483584E-1,2.180646399E0
7.077767833E0,1.389426201E0,1.295684516E0,8.393526042E-1,2.076972876E0
7.087786833E0,1.124240060E0,1.176230578E0,1.160940109E0,1.998803648E0
7.097805833E0,8.131208253E-1,1.061429855E0,1.415589859E0,1.947227122E0
7.107823833E0,3.912047473E-1,9.869977230E-1,1.624599899E0,1.940755134E0
7.117842833E0,1.952034473E-2,8.683904618E-1,1.703075234E0,1.911791905E0
7.127860833E0,-2.455412498E-1,6.812491554E-1,1.703894867E0,1.851391000E0
7.137879833E0,-4.805200893E-1,4.715194702E-1,1.747634379E0,1.872820357E0
7.147897833E0,-6.155796611E-1,2.651174355E-1,1.626029835E0,1.758749157E0
7.157916833E0,-5.833971709E-1,2.152073568E-1,1.372273832E0,1.506586186E0
7.167935833E0,-4.941166198E-1,3.471456850E-1,1.218051034E0,1.359525536E0
7.177953833E0,-2.675726813E-1,5.545663047E-1,1.056995326E0,1.223265321E0
7.187972833E0,9.174602956E-2,7.099507982E-1,8.564231117E-1,1.116202498E0
7.197990833E0,4.636786464E-1,8.742996579E-1,8.114802428E-1,1.279803877E0
7.208009833E0,8.184833068E-1,9.332694125E-1,9.473835678E-1,1.561551262E0
7.218028833E0,1.214023472E0,6.734641725E-1,8.563422740E-1,1.631174139E0
7.228046833E0,1.680871602E0,7.061331511E-2,4.127738102E-1,1.732252233E0
7.238065833E0,2.208774603E0,-6.521060479E-1,-2.165354057E-1,2.313182899E0
7.248083833E0,2.521297170E0,-1.263472205E0,-5.012022758E-1,2.864350739E0
7.258102833E0,2.622272152E0,-1.757658992E0,-3.643633962E-2,3.157056220E0
7.268120833E0,2.559076907E0,-2.093498501E0,5.805187328E-1,3.356875421E0
7.278139833E0,2.240345182E0,-2.284791330E0,8.735263637E-1,3.316996573E0
7.288158833E0,1.742085518E0,-2.315413198E0,1.035391034E0,3.077017196E0
7.298176833E0,1.201408689E0,-2.272075390E0,1.312373786E0,2.885833393E0
7.308195833E0,5.539321741E-1,-2.334141245E0,2.048068120E0,3.154304873E0
7.318213833E0,-2.113938028E-1,-2.640014359E0,2.066950095E0,3.359560366E0
7.328232833E0,-1.350646589E0,-3.076312541E0,1.324099061E-1,3.362361884E0
7.338251833E0,-2.573551397E0,-3.269884615E0,-1.554022690E0,4.441880087E0
7.348269833E0,-3.146620924E0,-3.064989408E0,-1.377967558E0,4.603713490E0
7.358288833E0,-2.822685469E0,-2.532479385E0,-3.730824718E-1,3.810537445E0
7.368306833E0,-1.912105592E0,-1.885047017E0,-3.782306528E-1,2.711569375E0
7.378325833E0,-1.000284643E0,-1.170096849E0,-1.443044730E0,2.109993862E0
7.388343833E0,-1.603294837E-1,-4.997755551E-1,-2.656789436E0,2.708137968E0
7.398362833E0,3.969142610E-1,1.862414199E-1,-3.527369680E0,3.554513139E0
7.408381833E0,4.181791225E-1,9.919947535E-1,-3.632606405E0,3.788767170E0
7.418399833E0,1.607399583E-2,1.729080725E0,-2.997839691E0,3.460783342E0
7.428418833E0,-6.451370439E-1,2.371880345E0,-1.884291264E0,3.097187715E0
7.438436833E0,-1.421069870E0,2.870525048E0,-7.751665485E-1,3.295487340E0
7.448455833E0,-2.263452209E0,2.986866513E0,-2.590576735E-1,3.756554053E0
7.458473833E0,-2.924459766E0,2.499431507E0,-3.791933969E-1,3.865670758E0
7.468492833E0,-3.286374640E0,1.681621215E0,-6.588173358E-1,3.749953129E0
7.478511833E0,-3.343970299E0,8.129898477E-1,-7.957674587E-1,3.532185683E0
7.488529833E0,-3.045428132E0,-1.008913672E-1,-6.256317557E-1,3.110663381E0
7.498548833E0,-2.411557504E0,-1.013016078E0,-2.696993136E-1,2.629552983E0
7.508566833E0,-1.604747578E0,-1.685625973E0,3.471974328E-2,2.327607177E0
7.518585833E0,-7.437094054E-1,-1.953285778E0,2.742311981E-1,2.107992353E0
7.528604833E0,-5.378678262E-2,-1.841264820E0,5.653029621E-1,1.926841092E0
7.538622833E0,5.904117832E-1,-1.513214972E0,4.406252678E-1,1.683019980E0
7.548641833E0,1.149460856E0,-1.005039307E0,1.935442999E-2,1.527003229E0
7.558659833E0,1.489033519E0,-3.271201408E-1,-3.969038822E-1,1.575360625E0
7.568678833E0,1.543590088E0,4.305696648E-1,-7.701154312E-1,1.777959047E0
7.578696833E0,1.492127281E0,1.123008052E0,-9.205784695E-1,2.082079640E0
7.588715833E0,1.413991523E0,1.571138660E0,-8.015007998E-1,2.260586704E0
7.598734833E0,1.270274564E0,1.905785336E0,-4.805360229E-1,2.340198728E0
7.608752833E0,1.092432961E0,2.191268624E0,-3.494553351E-1,2.473294764E0
7.618771833E0,8.832090604E-1,2.445578651E0,-3.320326790E-1,2.621289546E0
7.628789833E0,6.651125944E-1,2.597123278E0,-1.326009639E-1,2.684214429E0
7.638808833E0,4.674240804E-1,2.538694975E0,1.197227637E-1,2.584142215E0
7.648827833E0,2.541977602E-1,2.242502512E0,2.620910628E-1,2.272031194E0
7.658845833E0,8.801521361E-2,1.794409327E0,3.351824279E-1,1.827566352E0
7.668864833E0,-8.297579080E-2,1.305227172E0,3.509406741E-1,1.354127878E0
7.678882833E0,-1.760427064E-1,7.888776845E-1,4.113785183E-1,9.069461510E-1
7.688901833E0,-1.617418787E-1,2.595655042E-1,7.380054465E-1,7.988658995E-1
7.698920833E0,-1.145908087E-1,-1.994461870E-1,1.297175410E0,1.317411811E0
7.708938833E0,-9.866357803E-2,-5.054982251E-1,1.818630394E0,1.890153292E0
7.718957833E0,-1.043362543E-1,-5.883994639E-1,1.971675271E0,2.060243519E0
7.728975833E0,2.393996269E-2,-4.085151368E-1,1.693159672E0,1.741909129E0
7.738994833E0,2.843652999E-1,-6.311192214E-2,1.290438395E0,1.322905132E0
7.749012833E0,6.215566850E-1,3.021203703E-1,1.117811193E0,1.314196064E0
7.759031833E0,9.674656838E-1,6.218566471E-1,1.219262431E0,1.676095586E0
7.769050833E0,1.246893010E0,8.837996292E-1,1.406266913E0,2.076880014E0
7.779068833E0,1.380515336E0,1.073161708E0,1.512618556E0,2.312036665E0
7.789087833E0,1.350287278E0,1.168249129E0,1.499274187E0,2.331502702E0
7.799105833E0,1.172421702E0,1.187960093E0,1.416544271E0,2.189159543E0
7.809124833E0,8.012965858E-1,1.266827338E0,1.303504729E0,1.986467291E0
7.819142833E0,2.182575569E-1,1.424035578E0,9.859118950E-1,1.745719322E0
7.829161833E0,-7.088942063E-1,1.740870466E0,5.500592709E-1,1.958501003E0
7.839180833E0,-1.712930716E0,2.074311447E0,3.033933091E-1,2.707202821E0
7.849198833E0,-2.065503786E0,1.959072182E0,1.509634137E-2,2.846839933E0
7.859217833E0,-1.831824783E0,1.280092331E0,1.218691304E-2,2.234808030E0
7.869236333E0,-1.459858252E0,2.916363126E-1,6.069702208E-1,1.607684890E0
7.879255333E0,-1.051272072E0,-7.152460366E-1,1.570169191E0,2.020440831E0
7.889274333E0,-8.072154298E-1,-1.190257464E0,2.273605753E0,2.690277439E0
7.899292333E0,-6.764500532E-1,-1.014224698E0,2.325144281E0,2.625363278E0
7.909311333E0,-4.968358675E-1,-6.424727601E-1,2.195662368E0,2.341057531E0
7.919329333E0,-3.194781223E-1,-5.386490142E-1,2.479558575E0,2.557424439E0
7.929348333E0,-5.215061474E-1,-9.762406003E-1,3.203763131E0,3.389559348E0
7.939367333E0,-1.115641730E0,-1.942116426E0,2.528938311E0,3.378165429E0
7.949385333E0,-2.169509380E0,-2.907172472E0,3.518605873E-2,3.627624677E0
7.959404333E0,-3.458803183E0,-3.544626567E0,-1.939954272E0,5.318939700E0
7.969422333E0,-4.455956934E0,-3.649120989E0,-2.351635384E0,6.221079100E0
7.979441333E0,-4.966177078E0,-3.088834353E0,-2.032356359E0,6.191468712E0
7.989460333E0,-4.873411587E0,-2.082944861E0,-1.728541027E0,5.574643834E0
7.999478333E0,-4.246930669E0,-9.232911390E-1,-1.513656729E0,4.602178107E0
8.009497333E0,-3.232246673E0,2.815352476E-1,-1.558450202E0,3.599367678E0
8.019515333E0,-2.192290133E0,1.488114629E0,-1.868800674E0,3.242381399E0
8.029534333E0,-1.263630080E0,2.601684691E0,-2.173973730E0,3.618243495E0
8.039552333E0,-3.979427862E-1,3.238169317E0,-2.135451103E0,3.899262803E0
8.049571333E0,4.670258850E-1,3.243337086E0,-1.794172368E0,3.735826966E0
8.059590333E0,1.307797024E0,2.639586927E0,-1.205550857E0,3.182939690E0
8.069608333E0,1.955563853E0,1.863156796E0,-8.206874147E-1,2.822961399E0
8.079627333E0,2.245437815E0,1.123478168E0,-1.095182468E0,2.739273410E0
8.089645333E0,2.020992442E0,3.764203548E-1,-1.614873640E0,2.614176659E0
8.099664333E0,1.349714543E0,-3.304553926E-1,-2.021571901E0,2.453096628E0
8.109683333E0,5.683563781E-1,-9.462683576E-1,-2.139747638E0,2.407690331E0
8.119701333E0,-3.514235079E-2,-1.597785591E0,-1.905489614E0,2.486974959E0
8.129720333E0,-3.251472902E-1,-1.808529768E0,-1.309073471E0,2.256141404E0
8.139738333E0,-4.497102329E-1,-1.486355787E0,-6.614042902E-1,1.687882832E0
8.149757333E0,-6.789938843E-1,-9.224181497E-1,-5.721615998E-1,1.280334657E0
8.159776333E0,-1.239245144E0,-1.910004687E-1,-9.919415438E-1,1.598798841E0
8.169794333E0,-1.804813862E0,4.788717592E-1,-1.645710686E0,2.488982704E0
8.179813333E0,-1.833203556E0,7.838215971E-1,-1.898155890E0,2.752818075E0
8.189831333E0,-1.304222621E0,6.468552482E-1,-1.246537353E0,1.916578652E0
8.199850333E0,-5.285885873E-1,2.462291747E-1,-2.672398286E-1,6.414451084E-1
8.209868333E0,2.644508529E-1,-8.298134565E-2,1.245082712E-1,3.038461237E-1
8.219887333E0,9.079971617E-1,-1.187505180E-1,-1.953426111E-1,9.363328826E-1
8.229906333E0,1.294569452E0,2.324712610E-1,-7.562670319E-1,1.517198991E0
8.239924333E0,1.378753863E0,9.116276979E-1,-1.044038773E0,1.955004919E0
8.249943333E0,1.299273830E0,1.637533209E0,-8.186533146E-1,2.244954508E0
8.259961333E0,1.250545181E0,2.050586954E0,-2.532920265E-1,2.415145329E0
8.269980333E0,1.196508138E0,2.084037706E0,4.002698319E-1,2.436198026E0
8.279999333E0,1.028537805E0,1.827415690E0,9.434410827E-1,2.299438887E0
8.290017333E0,6.991606387E-1,1.452409776E0,1.218408884E0,2.020603862E0
8.300036333E0,3.305644432E-1,1.075428089E0,1.140079583E0,1.601749007E0
8.310054333E0,1.038927430E-1,6.838482428E-1,7.353470099E-1,1.009543137E0
8.320073333E0,-9.010150015E-2,4.547835696E-1,4.189332671E-1,6.248611508E-1
8.330092333E0,-3.357728505E-1,3.046726799E-1,5.415642898E-1,7.063007355E-1
8.340110333E0,-5.555363578E-1,2.419753253E-1,7.576940449E-1,9.701922327E-1
8.350129333E0,-7.040603131E-1,1.958864021E-1,7.694995733E-1,1.061226649E0
8.360147333E0,-7.280230799E-1,1.814110351E-1,7.077798732E-1,1.031445547E0
8.370166333E0,-6.056013876E-1,2.420525086E-1,6.513681293E-1,9.217499104E-1
8.380184333E0,-3.094457620E-1,3.875861979E-1,6.733628695E-1,8.362997635E-1
8.390203333E0,8.470802844E-2,5.675266582E-1,6.809328941E-1,8.904670483E-1
8.400222333E0,5.540806934E-1,7.668073690E-1,5.791889298E-1,1.109260462E0
8.410240333E0,1.013159628E0,9.686199242E-1,3.483691417E-1,1.444326157E0
8.420259333E0,1.415987178E0,1.151767582E0,8.646175459E-2,1.827310561E0
8.430277333E0,1.643326338E0,1.336116843E0,-7.484436035E-3,2.117967348E0
8.440296333E0,1.647130828E0,1.324079180E0,8.705225028E-2,2.115136813E0
8.450315333E0,1.487190769E0,9.614407128E-1,2.259399942E-1,1.785260068E0
8.460333333E0,1.443260346E0,3.493541783E-1,-3.377585649E-2,1.485324738E0
8.470352333E0,1.674253138E0,-3.892988473E-1,-8.630244720E-1,1.923405418E0
8.480370333E0,1.895335193E0,-1.065337549E0,-1.491036629E0,2.636366783E0
8.490389333E0,1.934232333E0,-1.467372217E0,-1.139664358E0,2.682027365E0
8.500408333E0,1.663185821E0,-1.508028492E0,-1.866349375E-1,2.252813709E0
8.510426333E0,1.077339251E0,-1.239665852E0,8.099631827E-1,1.831248657E0
8.520445333E0,3.947522530E-1,-8.823892808E-1,1.359530118E0,1.668161361E0
8.530463333E0,-2.911752596E-1,-6.114643908E-1,1.427843285E0,1.580319012E0
8.540482333E0,-1.001210258E0,-5.065027767E-1,1.143640683E0,1.602148887E0
8.550501333E0,-1.899249904E0,-6.346801758E-1,3.068911135E-1,2.025870499E0
8.560519333E0,-2.991569137E0,-9.751027322E-1,-7.758182207E-1,3.240710593E0
8.570538333E0,-3.867295515E0,-1.362149232E0,-1.340819028E0,4.313840609E0
8.580556333E0,-4.010544113E0,-1.665968218E0,-1.159665416E0,4.494968082E0
8.590575333E0,-3.264855132E0,-1.883867633E0,-1.173312525E0,3.947771343E0
8.600594333E0,-2.330559826E0,-1.752744407E0,-2.413367948E0,3.785230100E0
8.610612333E0,-1.836343511E0,-1.220657723E0,-3.678511434E0,4.288777114E0
8.620631333E0,-1.632508989E0,-4.432750797E-1,-3.444802902E0,3.837739625E0
8.630649333E0,-1.458301139E0,3.600130677E-1,-2.004970486E0,2.505226191E0
8.640668333E0,-1.148208090E0,9.017429799E-1,-6.108027783E-1,1.582593521E0
8.650687333E0,-6.529229039E-1,1.111156915E0,-2.257756144E-2,1.288987104E0
8.660705333E0,-2.191723537E-1,1.096748207E0,-8.943667173E-2,1.122003595E0
8.670724333E0,-6.261344701E-2,9.637369144E-1,-3.110816668E-1,1.014633474E0
8.680742333E0,-2.641125914E-1,7.037556732E-1,-3.610831082E-1,8.339115777E-1
8.690761333E0,-7.685264504E-1,5.303892374E-1,-5.359777138E-2,9.353172559E-1
8.700779333E0,-1.452304527E0,3.616298229E-1,4.620237382E-1,1.566343034E0
8.710798333E0,-2.089265994E0,2.868351638E-1,9.113552177E-1,2.297362648E0
8.720817333E0,-2.430641061E0,7.574307740E-2,1.129232852E0,2.681216108E0
8.730835333E0,-2.417472839E0,-2.014131904E-1,1.030605526E0,2.635695345E0
8.740854333E0,-2.193122484E0,-3.922470134E-1,8.636888619E-1,2.389477432E0
8.750872333E0,-1.784636583E0,-6.043144155E-1,6.560273369E-1,1.995117920E0
8.760891333E0,-1.335966570E0,-7.097899997E-1,3.930862351E-1,1.563050002E0
8.770910333E0,-9.330904877E-1,-5.494301105E-1,5.631804228E-2,1.084298403E0
8.780928333E0,-5.200060442E-1,-2.159213018E-1,-1.280084145E-1,5.774205130E-1
8.790947333E0,-1.993897614E-1,1.986971587E-1,-3.793425009E-2,2.840349365E-1
8.800965333E0,9.891296178E-2,6.677736622E-1,-2.843486354E-2,6.756581824E-1
8.810984333E0,4.305655718E-1,1.161977990E0,-1.170940018E-1,1.244705012E0
8.821003333E0,6.575296327E-1,1.532701403E0,3.497935966E-2,1.668155378E0
8.831021333E0,7.022134700E-1,1.771889945E0,3.528340025E-1,1.938347123E0
8.841040333E0,5.351354223E-1,1.919543835E0,6.988358259E-1,2.111726774E0
8.851058333E0,2.385055876E-1,1.836318660E0,9.576147334E-1,2.084700726E0
8.861077333E0,-8.146984041E-2,1.579575607E0,1.108749032E0,1.931585061E0
8.871099083E0,-4.046109509E-1,1.250973197E0,1.263450132E0,1.823444597E0
8.881118083E0,-6.786477292E-1,9.222286999E-1,1.514195112E0,1.898382298E0
8.891137083E0,-8.338904276E-1,6.777536899E-1,1.817637537E0,2.111523035E0
8.901155083E0,-7.474533775E-1,5.427444041E-1,1.983473929E0,2.188018936E0
8.911174083E0,-4.471918371E-1,5.339507765E-1,1.968790255E0,2.088353188E0
8.921192083E0,-9.930794120E-2,6.343515623E-1,1.952009915E0,2.054898217E0
8.931211083E0,1.340769473E-1,7.299354118E-1,2.002648995E0,2.135739996E0
8.941230083E0,2.744636250E-1,7.111126399E-1,2.038904217E0,2.176727332E0
8.951248083E0,3.151684320E-1,5.431361675E-1,2.051802006E0,2.145744511E0
8.961267083E0,3.588447940E-1,3.042236137E-1,2.029867784E0,2.083670995E0
8.971285083E0,3.255384690E-1,5.928667367E-2,2.052569160E0,2.079069591E0
8.981304083E0,2.132640347E-1,-4.697477639E-2,2.208784543E0,2.219553409E0
8.991323083E0,9.717195332E-3,4.012067020E-2,2.397868441E0,2.398223749E0
9.001341083E0,-2.880595708E-1,2.965929973E-1,2.337461879E0,2.373746777E0
9.011360083E0,-6.424563879E-1,6.554050469E-1,2.137049586E0,2.325787376E0
9.021378083E0,-1.053477057E0,1.074469146E0,2.070562066E0,2.559594719E0
9.031397083E0,-1.501097787E0,1.402841760E0,2.096782297E0,2.935601398E0
9.041416083E0,-1.919985007E0,1.548760781E0,1.926112743E0,3.129682521E0
9.051434083E0,-2.250824854E0,1.418755542E0,1.493713485E0,3.051271831E0
9.061453083E0,-2.439067484E0,1.058776388E0,1.061786827E0,2.863118736E0
9.071471083E0,-2.404284152E0,5.255038887E-1,9.081569369E-1,2.623258592E0
9.081490083E0,-2.194495702E0,-1.686781383E-1,1.112169507E0,2.466005822E0
9.091509083E0,-1.992737526E0,-9.033182198E-1,1.607879201E0,2.715191002E0
9.101527083E0,-1.851013883E0,-1.525699362E0,2.068515687E0,3.167454512E0
9.111546083E0,-1.657264638E0,-1.846762957E0,2.236681463E0,3.340629202E0
9.121564083E0,-1.352397246E0,-1.790705116E0,2.243686427E0,3.173284088E0
9.131583083E0,-9.472477663E-1,-1.529265579E0,2.576731113E0,3.142526813E0
9.141602083E0,-6.281815803E-1,-1.406071762E0,3.436428519E0,3.765725809E0
9.151620083E0,-6.322413021E-1,-1.575370874E0,3.042299287E0,3.483835158E0
9.161639083E0,-9.021978933E-1,-1.924364280E0,1.060307189E0,2.375161101E0
9.171657083E0,-1.401977541E0,-2.264296255E0,-7.194984242E-2,2.664161282E0
9.181676083E0,-1.962071219E0,-2.310286360E0,1.418114980E-1,3.034346228E0
9.191695083E0,-2.265337059E0,-2.142361343E0,1.102562678E-1,3.119875087E0
9.201713083E0,-2.397642007E0,-1.887888764E0,-7.665534537E-1,3.146492552E0
9.211732083E0,-2.506739357E0,-1.508857042E0,-1.951181949E0,3.516746050E0
9.221750083E0,-2.355332724E0,-8.782471132E-1,-2.927176967E0,3.858403197E0
9.231769083E0,-1.759856375E0,1.262343693E-1,-3.467590671E0,3.890657353E0
9.241788083E0,-1.039803928E0,1.144853250E0,-3.344016784E0,3.684335683E0
9.251806083E0,-1.979042763E-1,1.825938098E0,-3.134905150E0,3.633296897E0
9.261825083E0,8.937673777E-1,2.074013824E0,-3.224551152E0,3.936760546E0
9.271843083E0,1.956130448E0,1.909126436E0,-3.067742862E0,4.108802300E0
9.281862083E0,2.808334647E0,1.510852697E0,-2.440255784E0,4.015503413E0
9.291881083E0,3.347901090E0,1.087468091E0,-1.660195262E0,3.891950265E0
9.301899083E0,3.467355028E0,6.994766808E-1,-1.118216990E0,3.709747667E0
9.311918083E0,2.999643264E0,3.052357668E-1,-8.403432687E-1,3.130048785E0
9.321936083E0,2.028092716E0,-8.409465551E-2,-7.768224800E-1,2.173404044E0
9.331955083E0,8.683781826E-1,-4.046711773E-1,-9.659401453E-1,1.360470431E0
9.341974083E0,-1.156468159E-1,-5.430683398E-1,-1.278776854E0,1.394118951E0
9.351992083E0,-8.974183792E-1,-4.825034648E-1,-1.374082814E0,1.710635239E0
9.362011083E0,-1.492355030E0,-2.296254212E-1,-1.305921822E0,1.996317403E0
9.372029083E0,-2.024056967E0,1.112748528E-1,-1.108122064E0,2.310221463E0
9.382048083E0,-2.418990777E0,4.399889445E-1,-8.492330830E-1,2.601211925E0
9.392067083E0,-2.479668503E0,6.684513545E-1,-4.910784066E-1,2.614716256E0
9.402085083E0,-2.307688442E0,7.875117749E-1,-1.329680228E-1,2.441983054E0
9.412104083E0,-1.959717715E0,9.803126013E-1,4.362037495E-2,2.191668099E0
9.422122083E0,-1.484726753E0,1.192167165E0,-1.344625711E-1,1.908862557E0
9.432141083E0,-9.033840010E-1,1.334952078E0,-5.768371797E-1,1.711999076E0
9.442160083E0,-4.045872697E-1,1.424019790E0,-8.868307527E-1,1.725685952E0
9.452178083E0,3.788177133E-2,1.447275336E0,-8.831026411E-1,1.695851173E0
9.462197083E0,4.077196231E-1,1.465005848E0,-6.047493752E-1,1.636520465E0
9.472215083E0,7.472729909E-1,1.461747780E0,-1.844681056E-1,1.652014521E0
9.482234083E0,9.762195504E-1,1.368478258E0,2.795436859E-1,1.704078058E0
9.492252083E0,1.063898549E0,1.165437203E0,5.846057904E-1,1.682821419E0
9.502271083E0,1.121277569E0,8.839230055E-1,6.814158010E-1,1.582059025E0
9.512290083E0,1.167412100E0,4.612318790E-1,6.647756486E-1,1.420391679E0
9.522308083E0,1.169780515E0,6.184132218E-2,7.110318021E-1,1.370320045E0
9.532327083E0,1.117291814E0,-1.890258640E-1,8.518236919E-1,1.417630198E0
9.542345083E0,9.395037138E-1,-2.808750969E-1,1.095275732E0,1.470097608E0
9.552364083E0,6.525805494E-1,-2.307141727E-1,1.310158568E0,1.481757698E0
9.562383083E0,3.701957014E-1,-1.570813555E-1,1.417372237E0,1.473317165E0
9.572401083E0,1.696364969E-1,-1.024420488E-1,1.494724907E0,1.507804185E0
9.582420083E0,7.034902096E-2,-5.338566363E-2,1.587719024E0,1.590173171E0
9.592438083E0,1.055410731E-1,7.822872877E-2,1.573102009E0,1.578578025E0
9.602457083E0,2.854458654E-1,2.399124277E-1,1.459205410E0,1.506093538E0
9.612476083E0,5.324623677E-1,3.730827641E-1,1.425459813E0,1.566729907E0
9.622494083E0,8.101302668E-1,4.600717914E-1,1.413772399E0,1.693141901E0
9.632513083E0,1.072229954E0,5.214120072E-1,1.308842944E0,1.770485077E0
9.642531083E0,1.221426339E0,5.904734713E-1,1.189269869E0,1.804135262E0
9.652550083E0,1.193312634E0,6.260795063E-1,1.058781066E0,1.713764259E0
9.662569083E0,1.091077869E0,4.778683770E-1,8.726256001E-1,1.476578660E0
9.672587083E0,1.181000152E0,9.721639216E-2,3.760989042E-1,1.243246867E0
9.682606083E0,1.668428434E0,-4.134782535E-1,-5.476009552E-1,1.804018989E0
9.692624083E0,2.200783213E0,-8.074618900E-1,-1.177093335E0,2.623164153E0
9.702643083E0,2.523125887E0,-1.015636216E0,-7.276472501E-1,2.815519789E0
9.712662083E0,2.593771654E0,-1.022766311E0,2.095244479E-1,2.795997642E0
9.722680083E0,2.341833258E0,-9.496603274E-1,7.420024569E-1,2.633743608E0
9.732699083E0,1.913640194E0,-8.818536758E-1,8.651845796E-1,2.277768437E0
9.742717083E0,1.349001183E0,-7.525056642E-1,9.837436013E-1,1.831343889E0
9.752736083E0,5.239947224E-1,-7.364556420E-1,1.193214255E0,1.496896002E0
9.762755083E0,-8.141452575E-1,-9.684971327E-1,2.580152611E-1,1.291274979E0
9.772773083E0,-2.757090234E0,-1.310521241E0,-1.236352819E0,3.293566574E0
9.782792083E0,-4.536403804E0,-1.594049220E0,-1.745373992E0,5.115298893E0
9.792810083E0,-5.204805458E0,-1.966580007E0,-1.707617205E0,5.820085334E0
9.802829083E0,-4.660776128E0,-2.405445117E0,-1.777941960E0,5.538057235E0
9.812848083E0,-3.536217102E0,-2.551207432E0,-2.406361083E0,4.980367900E0
9.822866083E0,-2.578658355E0,-2.110308076E0,-3.101535090E0,4.552186179E0
9.832885083E0,-1.969923737E0,-1.176324719E0,-2.953852257E0,3.740265035E0
9.842903083E0,-1.451611632E0,-3.191574025E-1,-2.185739789E0,2.643198101E0
9.852922083E0,-9.715689674E-1,5.431876230E-1,-1.475544578E0,1.848304859E0
9.862941083E0,-7.628087506E-1,1.460316966E0,-1.366854779E0,2.140722966E0
9.872958667E0,-9.484081462E-1,2.324457087E0,-1.555224001E0,2.953184798E0
9.882977667E0,-1.211781942E0,2.901775492E0,-1.590302324E0,3.523886770E0
9.892995667E0,-1.358924493E0,3.020320773E0,-1.286710210E0,3.553116451E0
9.903014667E0,-1.365968049E0,2.694522103E0,-7.194389288E-1,3.105464610E0
9.913033667E0,-1.348916106E0,2.025435156E0,-8.253096387E-2,2.434907307E0
9.923051667E0,-1.426461295E0,1.210259619E0,3.243007596E-1,1.898602422E0
9.933070667E0,-1.513291571E0,4.183583397E-1,3.105726667E-1,1.600478197E0
9.943088667E0,-1.388374287E0,-3.777897727E-1,5.604556203E-2,1.439947699E0
9.953107667E0,-1.089335399E0,-1.095812067E0,-1.321542366E-1,1.550780591E0
9.963126667E0,-7.160415503E-1,-1.588110788E0,-4.811176747E-2,1.742735241E0
9.973144667E0,-2.789835227E-1,-1.720382992E0,1.617433405E-1,1.750345781E0
9.983163667E0,1.243325624E-1,-1.563839580E0,3.140330489E-1,1.599896739E0
9.993181667E0,3.141676810E-1,-1.077887428E0,1.850806014E-1,1.137891677E0
1.000320067E1,2.327881801E-1,-4.046857953E-1,-6.050684139E-2,4.707674666E-1
1.001321967E1,7.974228054E-2,2.858212566E-1,-3.542592613E-1,4.621171348E-1
1.002323767E1,-1.195162109E-1,9.975712430E-1,-5.727390124E-1,1.156487132E0
1.003325667E1,-3.008143947E-1,1.585306463E0,-6.567909832E-1,1.742142439E0
1.004327467E1,-4.478473100E-1,1.932971381E0,-5.279978724E-1,2.053223642E0
1.005329367E1,-4.916602045E-1,2.091781173E0,-2.360263681E-1,2.161709203E0
1.006331267E1,-4.378979802E-1,2.022899219E0,1.213566220E-1,2.073307339E0
1.007333067E1,-3.492284632E-1,1.875066404E0,3.196323426E-1,1.933907799E0
1.008334967E1,-2.414335808E-1,1.725430893E0,4.521314187E-1,1.799951322E0
1.009336767E1,-7.769984812E-2,1.506097741E0,6.862419467E-1,1.656893383E0
1.010338667E1,9.301282883E-2,1.245411910E0,9.284524763E-1,1.556189646E0
1.011340567E1,1.844998267E-1,1.014595996E0,1.084884279E0,1.496802967E0
1.012342367E1,1.714503032E-1,8.205719322E-1,1.192642543E0,1.457782473E0
1.013344267E1,8.351987422E-2,6.886815512E-1,1.307270043E0,1.479936760E0
1.014346167E1,-1.246450961E-2,6.368904233E-1,1.404064851E0,1.541811558E0
1.015347967E1,-8.802339971E-2,6.573849142E-1,1.406626078E0,1.555152715E0
1.016349867E1,-1.245363379E-1,6.490444458E-1,1.347291896E0,1.500654339E0
1.017351667E1,-1.233777121E-1,5.741626632E-1,1.280298007E0,1.408562320E0
1.018353567E1,-1.257402796E-1,4.730262977E-1,1.287719585E0,1.377601621E0
1.019355467E1,-1.161973312E-1,3.860694301E-1,1.398100984E0,1.455073120E0
1.020357267E1,1.748902202E-3,3.723121011E-1,1.529880852E0,1.574533195E0
1.021359167E1,2.543749309E-1,4.675310844E-1,1.557821188E0,1.646237763E0
1.022360967E1,5.334789062E-1,6.450589836E-1,1.608321104E0,1.813118201E0
1.023362867E1,7.709682477E-1,8.826161528E-1,1.656795691E0,2.029378051E0
1.024364767E1,8.715228152E-1,1.178477663E0,1.651785651E0,2.208338166E0
1.025366567E1,7.388003755E-1,1.459385505E0,1.528422557E0,2.238684336E0
1.026368467E1,3.742992774E-1,1.638497999E0,1.327665570E0,2.141838348E0
1.027370267E1,-2.136663231E-1,1.699776235E0,1.063955852E0,2.016654309E0
1.028372167E1,-9.628227022E-1,1.581319832E0,8.233816655E-1,2.026217494E0
1.029374067E1,-1.664640316E0,1.236246400E0,6.248322952E-1,2.165582587E0
1.030375867E1,-2.108815867E0,6.487672877E-1,4.541719508E-1,2.252615261E0
1.031377767E1,-2.309565398E0,-1.482432890E-1,4.791945255E-1,2.363407666E0
1.032379567E1,-2.365682004E0,-9.865042180E-1,7.711446874E-1,2.676622133E0
1.033381467E1,-2.193078922E0,-1.615895587E0,1.095534325E0,2.936138478E0
1.034383367E1,-1.741168090E0,-1.943118054E0,1.304995476E0,2.917256808E0
1.035385167E1,-1.137578729E0,-1.941539891E0,1.605589139E0,2.764340607E0
1.036387067E1,-4.674392831E-1,-1.749402723E0,2.034366924E0,2.723519443E0
1.037388867E1,2.269669846E-1,-1.569118447E0,2.539979024E0,2.994184389E0
1.038390767E1,6.584461838E-1,-1.558011661E0,3.167672946E0,3.590975300E0
1.039392667E1,4.743699878E-1,-1.828740084E0,2.797489524E0,3.375687311E0
1.040394467E1,-2.087555391E-1,-2.259315596E0,8.726315935E-1,2.430961073E0
1.041396367E1,-1.143693747E0,-2.548767974E0,-5.960522997E-1,2.856489439E0
1.042398167E1,-1.877895580E0,-2.477178758E0,-6.142979515E-1,3.168638254E0
1.043400067E1,-2.048643925E0,-2.205508933E0,-9.118615866E-2,3.011565457E0
1.044401967E1,-1.826242154E0,-1.900764332E0,-9.209847048E-2,2.637526792E0
1.045403767E1,-1.875493836E0,-1.467883848E0,-6.655512817E-1,2.472876590E0
1.046405667E1,-2.346157858E0,-8.634051257E-1,-1.415003091E0,2.872657107E0
1.047407467E1,-2.780533476E0,-1.417090255E-1,-1.954797575E0,3.401864403E0
1.048409367E1,-2.898516254E0,6.987036788E-1,-2.355199993E0,3.799546067E0
1.049411267E1,-2.481734909E0,1.530263114E0,-2.739704708E0,4.000836818E0
1.050413067E1,-1.557883607E0,2.143337243E0,-2.753573134E0,3.821395148E0
1.051414967E1,-3.180920398E-1,2.576064531E0,-2.580117821E0,3.659822261E0
1.052416767E1,9.358778554E-1,2.688995900E0,-2.458633729E0,3.761840789E0
1.053418667E1,1.916778687E0,2.309906875E0,-2.150047946E0,3.692210243E0
1.054420567E1,2.456819923E0,1.729242108E0,-1.611430653E0,3.409244954E0
1.055422367E1,2.431050074E0,1.392684562E0,-1.259133571E0,3.071643225E0
1.056424267E1,1.815797857E0,1.258826008E0,-1.375819291E0,2.602814534E0
1.057426067E1,8.611597949E-1,1.036893184E0,-1.780670270E0,2.233277922E0
1.058427967E1,-3.308120728E-2,6.156352097E-1,-2.045546508E0,2.136436658E0
1.059429867E1,-6.311724311E-1,1.040348303E-1,-1.834175656E0,1.942524703E0
1.060431667E1,-8.943614548E-1,-3.550066817E-1,-1.094350775E0,1.457228800E0
1.061433567E1,-1.076858903E0,-6.306789261E-1,-2.047098505E-1,1.264629245E0
1.062435467E1,-1.296854544E0,-6.969378197E-1,1.703329003E-1,1.482082093E0
1.063437267E1,-1.632823861E0,-6.036121649E-1,-1.601633497E-1,1.748174392E0
1.064439167E1,-1.952935529E0,-4.758885098E-1,-8.235825174E-1,2.172260394E0
1.065440967E1,-2.108722311E0,-3.655784476E-1,-1.256872745E0,2.481952152E0
1.066442867E1,-1.980930828E0,-2.872491467E-1,-1.063883200E0,2.266814170E0
1.067444767E1,-1.607425311E0,-1.754076988E-1,-4.859199929E-1,1.688402271E0
1.068446567E1,-1.014297788E0,-5.037376285E-3,-2.500574930E-1,1.044678959E0
1.069448467E1,-3.038324350E-1,3.247274601E-1,-5.730879450E-1,7.253908358E-1
1.070450267E1,2.301773983E-1,6.503542221E-1,-8.491034210E-1,1.094037873E0
1.071452167E1,5.521011186E-1,1.093324077E0,-8.403162253E-1,1.485363437E0
1.072454067E1,7.072134241E-1,1.652735385E0,-6.308023024E-1,1.905150027E0
1.073455867E1,7.396780425E-1,2.112476224E0,-3.207512073E-1,2.261097242E0
1.074457767E1,6.927120370E-1,2.382760844E0,4.134697750E-2,2.481755181E0
1.075459567E1,5.918007892E-1,2.390983198E0,4.152519333E-1,2.497891710E0
1.076461467E1,5.241286236E-1,1.968263420E0,7.595580641E-1,2.173867558E0
1.077463367E1,5.000231847E-1,1.228068484E0,9.616390065E-1,1.637963664E0
1.078465167E1,3.839755422E-1,5.194134289E-1,9.563566319E-1,1.154056123E0
1.079467067E1,1.663161555E-1,3.326130152E-2,8.335311162E-1,8.506124261E-1
1.080468867E1,-7.207044125E-2,-1.878669459E-1,6.924509588E-1,7.210939385E-1
1.081470767E1,-2.654086268E-1,-2.222859961E-1,6.396739903E-1,7.273483465E-1
1.082472667E1,-3.095489654E-1,-1.985357755E-1,7.457727416E-1,8.315130776E-1
1.083474467E1,-2.156616855E-1,-7.765745580E-2,9.255290146E-1,9.534907445E-1
1.084476367E1,-8.531379998E-3,1.257209837E-1,1.066596454E0,1.074014221E0
1.085478167E1,2.412719053E-1,3.452242899E-1,1.200574730E0,1.272309563E0
1.086480067E1,4.981219625E-1,4.743430907E-1,1.386246192E0,1.547515869E0
1.087481996E1,7.467119506E-1,5.619513381E-1,1.516178633E0,1.781057464E0
1.088483796E1,8.558391210E-1,6.469768703E-1,1.374541529E0,1.743675453E0
1.089485696E1,8.640325320E-1,6.863268775E-1,1.118068617E0,1.570883264E0
1.090487496E1,7.756413424E-1,7.674564099E-1,9.120498669E-1,1.422126504E0
1.091489396E1,6.533342555E-1,9.158856404E-1,8.025774184E-1,1.381963338E0
1.092491296E1,5.606430236E-1,1.039029171E0,8.150866592E-1,1.434666679E0
1.093493096E1,5.336721566E-1,1.031238341E0,7.571126854E-1,1.386173909E0
1.094494996E1,6.683136526E-1,7.486576116E-1,1.973762727E-1,1.022784802E0
1.095496896E1,1.116018583E0,2.016540956E-1,-7.741115646E-1,1.373102533E0
1.096498696E1,1.629174029E0,-3.047574645E-1,-1.538579024E0,2.261484146E0
1.097500596E1,1.868504074E0,-6.937586886E-1,-1.315357912E0,2.388048373E0
1.098502396E1,1.887370116E0,-9.121802598E-1,-3.017936571E-1,2.117856981E0
1.099504296E1,1.705798867E0,-9.623452771E-1,4.403561497E-1,2.007429138E0
1.100506196E1,1.356540875E0,-9.711634630E-1,8.666463836E-1,1.880009993E0
1.101507996E1,8.654510665E-1,-1.054013246E0,1.105169513E0,1.755377203E0
1.102509896E1,6.636443585E-2,-1.249158221E0,7.476403423E-1,1.457314853E0
1.103511696E1,-1.104606280E0,-1.517806206E0,1.274473742E-2,1.877246159E0
1.104513596E1,-2.316331504E0,-1.862319474E0,-2.201560016E-1,2.980284235E0
1.105515496E1,-3.076158759E0,-2.158104971E0,-2.303661172E-1,3.764736156E0
1.106517296E1,-3.242037250E0,-2.379891615E0,-7.632287268E-1,4.093556855E0
1.107519196E1,-3.205601496E0,-2.259520249E0,-1.653304904E0,4.256140248E0
1.108520996E1,-3.066235449E0,-1.737101351E0,-2.325580337E0,4.222279578E0
1.109522896E1,-2.721916601E0,-1.059966881E0,-2.193704866E0,3.653039941E0
1.110524796E1,-2.282709429E0,-2.254844230E-1,-1.688262775E0,2.848128641E0
1.111526596E1,-1.804011332E0,6.199826145E-1,-1.763200983E0,2.597636047E0
1.112528496E1,-1.419743429E0,1.201751336E0,-2.398622147E0,3.035336206E0
1.113530296E1,-1.100641575E0,1.668257403E0,-2.848142784E0,3.479426958E0
1.114532196E1,-7.485432985E-1,2.165319850E0,-2.718493348E0,3.555155863E0
1.115534096E1,-4.168623295E-1,2.429101197E0,-2.072641482E0,3.220271657E0
1.116535896E1,-2.240211573E-1,2.347860568E0,-1.156010614E0,2.626593852E0
1.117537796E1,-2.637635127E-1,2.048048678E0,-3.053063719E-1,2.087411449E0
1.118539596E1,-5.470435694E-1,1.710982423E0,3.791618219E-1,1.835887036E0
1.119541496E1,-9.659778598E-1,1.167483729E0,8.372816665E-1,1.731234262E0
1.120543396E1,-1.377922681E0,5.758121628E-1,9.120954752E-1,1.749899631E0
1.121545196E1,-1.695021279E0,8.804737329E-2,7.316772974E-1,1.848296822E0
1.122547096E1,-1.805966349E0,-2.748051023E-1,5.805723810E-1,1.916793308E0
1.123548996E1,-1.625511041E0,-5.664683121E-1,6.671873327E-1,1.846161269E0
1.124550796E1,-1.291492648E0,-8.055638838E-1,1.152872121E0,1.909450329E0
1.125552696E1,-8.715374333E-1,-9.044461477E-1,1.433044821E0,1.905575449E0
1.126554496E1,-5.808407682E-1,-7.523770255E-1,1.224789658E0,1.550340896E0
1.127556396E1,-5.716238022E-1,-3.712806523E-1,8.307631905E-1,1.074602518E0
1.128558296E1,-6.525346488E-1,8.807777882E-2,3.293444216E-1,7.362247694E-1
1.129560096E1,-6.442202005E-1,4.546689641E-1,-1.921652341E-1,8.115854920E-1
1.130561996E1,-5.676403865E-1,8.513405657E-1,-6.394210982E-1,1.206588458E0
1.131563796E1,-3.916909432E-1,1.094432709E0,-8.988445151E-1,1.469396547E0
1.132565696E1,-1.444618946E-1,1.192126819E0,-8.421885037E-1,1.466736877E0
1.133567596E1,1.026408541E-1,1.205941451E0,-5.365111260E-1,1.323885990E0
1.134569396E1,1.877532175E-1,1.184695008E0,-8.513180539E-2,1.202497799E0
1.135571296E1,1.511879468E-1,1.315475003E0,3.189821322E-1,1.362013905E0
1.136573096E1,1.909729868E-1,1.358936187E0,6.173816268E-1,1.504771848E0
1.137574996E1,2.197980058E-1,1.343166246E0,8.724982770E-1,1.616681778E0
1.138576896E1,1.460774803E-1,1.270295906E0,1.124865274E0,1.703030300E0
1.139578696E1,-1.820121288E-2,1.197993915E0,1.355426688E0,1.809061141E0
1.140580596E1,-2.416151369E-1,1.183668237E0,1.569118008E0,1.980297880E0
1.141582396E1,-4.523964438E-1,1.108839664E0,1.677365173E0,2.061005062E0
1.142584296E1,-6.296325669E-1,9.509584093E-1,1.764322625E0,2.100855395E0
1.143586196E1,-7.699090245E-1,7.576050210E-1,1.883608309E0,2.171337269E0
1.144587996E1,-8.461081848E-1,5.802303189E-1,1.991373517E0,2.240119365E0
1.145589896E1,-7.786737084E-1,4.179010874E-1,2.093188744E0,2.272094448E0
1.146591696E1,-5.825259358E-1,2.634860623E-1,2.153667373E0,2.246562824E0
1.147593596E1,-3.181332627E-1,1.558879387E-1,2.202740715E0,2.231048292E0
1.148595496E1,-3.353202760E-2,1.462283385E-1,2.265168074E0,2.270130729E0
1.149597296E1,2.320514309E-1,3.197678518E-1,2.332388835E0,2.365615570E0
1.150599196E1,3.707444626E-1,5.761606568E-1,2.381383678E0,2.477983209E0
1.151601096E1,3.579384756E-1,8.307490110E-1,2.299454978E0,2.470983016E0
1.152602896E1,2.253464288E-1,1.055791385E0,2.091668176E0,2.353837764E0
1.153604796E1,-9.252020091E-2,1.256643827E0,1.915530306E0,2.292808332E0
1.154606596E1,-6.435963026E-1,1.450788344E0,1.685163019E0,2.314903329E0
1.155608496E1,-1.398726490E0,1.642256005E0,1.360931549E0,2.550602921E0
1.156610396E1,-2.157142519E0,1.764103208E0,9.603759348E-1,2.947481283E0
1.157612196E1,-2.616390146E0,1.664836782E0,5.023215790E-1,3.141576973E0
1.158614096E1,-2.797619040E0,1.241814119E0,4.466081388E-1,3.093256121E0
1.159615896E1,-2.673433535E0,5.558012366E-1,8.378884614E-1,2.856259609E0
1.160617796E1,-2.124395188E0,-1.730460083E-1,1.313297646E0,2.503547591E0
1.161619696E1,-1.322559781E0,-7.458918786E-1,1.970805059E0,2.487888995E0
1.162621496E1,-5.535366100E-1,-1.091167039E0,2.873348669E0,3.123008303E0
1.163623396E1,-1.604715711E-1,-1.397854670E0,3.884971941E0,4.131919140E0
1.164625196E1,-2.725360903E-1,-1.874412686E0,3.201354078E0,3.719726706E0
1.165627096E1,-8.010182583E-1,-2.535197171E0,6.717162935E-1,2.742272365E0
1.166628996E1,-1.420315579E0,-3.245348529E0,-1.068466394E0,3.700162679E0
1.167630796E1,-1.980326811E0,-3.614457525E0,-1.264670885E0,4.311077583E0
1.168632696E1,-2.412182279E0,-3.386204445E0,-1.286216851E0,4.351937233E0
1.169634596E1,-2.567826681E0,-2.878429314E0,-1.666960345E0,4.202123983E0
1.170636396E1,-2.684230419E0,-2.288632366E0,-2.247748196E0,4.182738696E0
1.171638296E1,-2.824404550E0,-1.489887505E0,-3.168208551E0,4.498285370E0
1.172640096E1,-2.457164909E0,-6.508336937E-1,-4.029646089E0,4.764377345E0
1.173641996E1,-1.506096572E0,9.686029673E-2,-4.036421843E0,4.309339867E0
1.174643896E1,-1.552388978E-1,9.373916996E-1,-3.467770765E0,3.595585681E0
1.175645696E1,1.310042354E0,1.608631591E0,-2.565821378E0,3.299597841E0
1.176647596E1,2.558924587E0,1.912587987E0,-1.673253264E0,3.606364421E0
1.177649396E1,3.316137845E0,1.820807751E0,-1.116148245E0,3.944350134E0
1.178651296E1,3.534429023E0,1.689765801E0,-8.711731517E-1,4.013282901E0
1.179653196E1,3.179537532E0,1.812939738E0,-7.559840997E-1,3.737341484E0
1.180654996E1,2.269874498E0,2.052268614E0,-6.586960061E-1,3.130178450E0
1.181656896E1,1.109848893E0,2.107600815E0,-5.827652331E-1,2.452215545E0
1.182658696E1,4.135618687E-2,1.833394468E0,-5.789000773E-1,1.923062898E0
1.183660596E1,-7.647509032E-1,1.291848743E0,-6.415622755E-1,1.632580556E0
1.184662496E1,-1.340299941E0,7.011285192E-1,-6.244193356E-1,1.636424346E0
1.185664296E1,-1.782300328E0,1.936901879E-1,-6.466317384E-1,1.905844420E0
1.186666196E1,-2.192833924E0,-1.937498295E-1,-1.055352113E0,2.441275833E0
1.187667704E1,-2.631040637E0,-4.451836109E-1,-1.565085476E0,3.093550683E0
1.188669504E1,-2.701304873E0,-6.007043445E-1,-1.705653710E0,3.250715045E0
1.189671404E1,-2.284641057E0,-6.029449975E-1,-1.485863744E0,2.791221685E0
1.190673204E1,-1.635945105E0,-4.117743748E-1,-1.376846209E0,2.177516935E0
1.191675104E1,-9.263644356E-1,-2.069814938E-1,-1.604044304E0,1.863853679E0
1.192677004E1,-2.088064098E-1,-1.264284968E-2,-2.083734820E0,2.094208862E0
1.193678804E1,3.902478504E-1,1.824535936E-1,-2.384321027E0,2.422925805E0
1.194680704E1,8.132488793E-1,2.964479864E-1,-2.080100337E0,2.253014105E0
1.195682504E1,1.159990814E0,3.198456198E-1,-1.348749606E0,1.807485936E0
1.196684404E1,1.452360367E0,2.905323583E-1,-5.423314445E-1,1.577302471E0
1.197686304E1,1.653444944E0,2.866796279E-1,9.273362428E-2,1.680673948E0
1.198688104E1,1.720753998E0,3.225066876E-1,4.930034561E-1,1.818806557E0
1.199690004E1,1.673372840E0,2.649385107E-1,7.525531729E-1,1.853835309E0
1.200691804E1,1.514094101E0,1.313705635E-1,9.895092483E-1,1.813523566E0
1.201693704E1,1.270247374E0,-6.157118082E-3,1.100945630E0,1.680966265E0
1.202695604E1,1.013589106E0,-1.397162944E-1,1.050486206E0,1.466425854E0
1.203697404E1,6.893253297E-1,-1.852807224E-1,8.903789163E-1,1.141171753E0
1.204699304E1,4.427932692E-1,-8.504599750E-2,6.483556437E-1,7.897238389E-1
1.205701204E1,2.930212256E-1,2.021850228E-2,4.960824537E-1,5.765136836E-1
1.206703004E1,2.461186624E-1,1.812788880E-1,4.603536272E-1,5.525955965E-1
1.207704904E1,2.709678671E-1,3.240620470E-1,5.355264549E-1,6.820765200E-1
1.208706704E1,2.320830059E-1,4.150587559E-1,7.107186837E-1,8.551358605E-1
1.209708604E1,4.969188979E-1,4.231331760E-1,8.622362673E-1,1.081397918E0
1.210710504E1,9.102658814E-1,2.825941783E-1,1.089781980E0,1.447780442E0
1.211712304E1,1.236377085E0,1.586905092E-1,1.309196555E0,1.807707552E0
1.212714204E1,1.384794329E0,1.674952465E-1,1.480619230E0,2.034193524E0
1.213716004E1,1.304360030E0,3.191305053E-1,1.633995059E0,2.114979721E0
1.214717904E1,1.078321291E0,6.081151056E-1,1.800354191E0,2.184915559E0
1.215719804E1,8.184625491E-1,9.093139547E-1,1.999361983E0,2.343966969E0
1.216721604E1,5.276667738E-1,1.089553792E0,2.162990320E0,2.478726853E0
1.217723504E1,3.280416620E-1,1.147052388E0,2.123565030E0,2.435748129E0
1.218725304E1,2.632819945E-1,1.022244739E0,1.961565581E0,2.227563971E0
1.219727204E1,3.084324396E-1,6.943802476E-1,1.871899552E0,2.020223362E0
1.220729104E1,4.805993190E-1,2.128415734E-1,1.701967917E0,1.781283816E0
1.221730904E1,7.318354645E-1,-3.012052810E-1,1.473022381E0,1.672155108E0
1.222732804E1,1.015001793E0,-7.103817379E-1,1.323856255E0,1.813137126E0
1.223734704E1,1.530898706E0,-9.655594915E-1,1.094548338E0,2.115181327E0
1.224736504E1,2.196938961E0,-9.449158967E-1,8.614385609E-1,2.541944776E0
1.225738404E1,2.759496071E0,-7.722025949E-1,7.941277532E-1,2.973508753E0
1.226740204E1,3.096881876E0,-5.622980779E-1,1.008077666E0,3.305007876E0
1.227742104E1,3.202657422E0,-3.863904423E-1,1.197708717E0,3.441049013E0
1.228744004E1,3.009239715E0,-4.177034515E-1,1.287942949E0,3.299817703E0
1.229745804E1,2.507843896E0,-8.037091470E-1,1.507223769E0,3.034296111E0
1.230747704E1,1.879734237E0,-1.633407413E0,1.661492467E0,2.993656259E0
1.231749504E1,1.003719590E0,-2.802662848E0,2.332490869E-1,2.986097318E0
1.232751404E1,-4.637917900E-1,-4.130698255E0,-2.420715413E0,4.810159457E0
1.233753304E1,-1.950161903E0,-4.952558329E0,-3.257996056E0,6.240633281E0
1.234755104E1,-2.657377081E0,-4.680026624E0,-1.858527555E0,5.693718189E0
1.235757004E1,-2.618339607E0,-3.825291749E0,-7.672426942E-1,4.698640295E0
1.236758804E1,-2.691411677E0,-2.972277710E0,-1.530517175E0,4.291924327E0
1.237760704E1,-3.121534614E0,-2.312874337E0,-2.824719130E0,4.803374253E0
1.238762604E1,-3.337784237E0,-1.730973469E0,-3.309165917E0,5.008757514E0
1.239764404E1,-3.033188156E0,-9.904896802E-1,-2.960475398E0,4.352667547E0
1.240766304E1,-2.331611740E0,-6.631561160E-2,-2.365584648E0,3.322168237E0
1.241768204E1,-1.501990949E0,9.322894192E-1,-2.102840012E0,2.747194294E0
1.242770004E1,-7.604105151E-1,1.713218399E0,-2.191955672E0,2.884096236E0
1.243771904E1,-2.483008432E-1,2.285628067E0,-2.165895216E0,3.158615370E0
1.244773704E1,5.888906300E-2,2.899527823E0,-1.651895725E0,3.337587302E0
1.245775604E1,2.251639956E-1,3.468722107E0,-7.863990498E-1,3.563868031E0
1.246777504E1,4.424640709E-1,3.692310863E0,-9.903078318E-2,3.720045841E0
1.247779304E1,6.744842193E-1,3.309588963E0,1.575587806E-1,3.381291593E0
1.248781204E1,7.637507370E-1,2.429656683E0,9.077583030E-2,2.548487205E0
1.249783004E1,6.029982072E-1,1.399286653E0,-8.401747227E-2,1.525997677E0
1.250784904E1,2.384137863E-1,3.952583295E-1,-1.465404336E-1,4.842978208E-1
1.251786804E1,-2.738821194E-1,-5.405060899E-1,5.627024129E-2,6.085430047E-1
1.252788604E1,-6.780720708E-1,-1.350176473E0,2.271973649E-1,1.527866776E0
1.253790504E1,-8.907969922E-1,-1.960517029E0,1.833524568E-1,2.161195138E0
1.254792304E1,-8.363956672E-1,-2.096432049E0,-7.376247928E-2,2.258323704E0
1.255794204E1,-7.128358144E-1,-1.697595808E0,-2.289372039E-1,1.855364834E0
1.256796104E1,-4.942473051E-1,-9.368426460E-1,-3.862809531E-1,1.127460650E0
1.257797904E1,-2.995098808E-1,-7.683650672E-2,-5.255427727E-1,6.097583320E-1
1.258799804E1,-3.221903533E-1,6.695424449E-1,-4.943212724E-1,8.924389221E-1
1.259801704E1,-3.723594636E-1,1.297441020E0,-5.548870245E-1,1.459419193E0
1.260803504E1,-3.778970692E-1,1.640657376E0,-6.001886201E-1,1.787397326E0
1.261805404E1,-4.096883807E-1,1.615281630E0,-5.408417201E-1,1.751995742E0
1.262807204E1,-3.468463075E-1,1.330773658E0,-4.650536191E-1,1.451735430E0
1.263809104E1,-1.224909818E-1,8.989205289E-1,-3.709358127E-1,9.801303664E-1
1.264811004E1,1.273009014E-1,4.027199614E-1,-1.602793439E-1,4.517503236E-1
1.265812804E1,2.973683381E-1,3.963944435E-2,1.093768466E-1,3.193156880E-1
1.266814704E1,3.836673939E-1,-1.153667343E-1,3.859340671E-1,5.562870272E-1
1.267816504E1,4.034122717E-1,-1.138984984E-1,5.745161274E-1,7.111843007E-1
1.268818404E1,3.987368381E-1,-2.670423388E-3,6.802850957E-1,7.885340885E-1
1.269820304E1,4.059692591E-1,1.414149106E-1,8.017690408E-1,9.097487626E-1
1.270822104E1,4.973761502E-1,2.439364815E-1,9.404359062E-1,1.091470446E0
1.271824004E1,6.427233133E-1,3.193445134E-1,1.096710784E0,1.310667281E0
1.272825904E1,7.859365350E-1,4.511957181E-1,1.279975387E0,1.568314638E0
1.273827704E1,8.586285353E-1,6.568352759E-1,1.475537707E0,1.829176609E0
1.274829604E1,9.129561853E-1,9.098518986E-1,1.593162636E0,2.049264907E0
1.275831404E1,9.288442397E-1,1.076256639E0,1.689818280E0,2.208294771E0
1.276833304E1,9.403720254E-1,1.131135097E0,1.674271849E0,2.228666054E0
1.277835204E1,9.592848444E-1,1.142061789E0,1.638807463E0,2.215902174E0
1.278837004E1,9.501248887E-1,1.170521942E0,1.638300948E0,2.226407177E0
1.279838904E1,9.147159049E-1,1.177764303E0,1.475522650E0,2.097856294E0
1.280840704E1,7.293764180E-1,1.173174239E0,1.312031139E0,1.905191188E0
1.281842604E1,4.046194294E-1,1.209410604E0,1.355252441E0,1.860940641E0
1.282844504E1,4.944990277E-2,1.181059209E0,1.432611104E0,1.857342382E0
1.283846304E1,-3.649162504E-1,9.996142602E-1,1.529913597E0,1.863606222E0
1.284848204E1,-7.930982047E-1,7.279970598E-1,1.439845279E0,1.797815038E0
1.285850104E1,-1.418831848E0,4.686420554E-1,9.631264651E-1,1.777729388E0
1.286851904E1,-2.355102929E0,2.880934846E-1,5.155396485E-1,2.428021580E0
1.287853858E1,-2.875482610E0,-2.283571601E-2,-5.006868437E-2,2.876009142E0
1.288855658E1,-2.873323526E0,-6.141178572E-1,-3.063063920E-1,2.954141573E0
1.289857558E1,-2.469174505E0,-1.202241333E0,1.248006320E-1,2.749142076E0
1.290859458E1,-1.717929500E0,-1.576802858E0,1.030267557E0,2.549321529E0
1.291861258E1,-9.456690180E-1,-1.613804623E0,2.045442574E0,2.771730610E0
1.292863158E1,-1.624362355E-1,-1.484089991E0,2.459596181E0,2.877242083E0
1.293864958E1,7.493025595E-1,-1.446233947E0,2.728418412E0,3.177627100E0
1.294866858E1,1.502572455E0,-1.625825914E0,3.448527578E0,4.097972223E0
1.295868758E1,1.728457412E0,-2.205037647E0,2.753433970E0,3.928250842E0
1.296870558E1,1.297082001E0,-2.933143466E0,2.811480157E-2,3.207264060E0
1.297872458E1,3.979889792E-1,-3.443372673E0,-1.461789880E0,3.761919755E0
1.298874258E1,-4.624726582E-1,-3.374601231E0,-9.582755419E-1,3.538376243E0
1.299876158E1,-1.021379351E0,-2.832968967E0,-5.892167585E-1,3.068567310E0
1.300878058E1,-1.416207910E0,-2.267345577E0,-1.087380748E0,2.885982970E0
1.301879858E1,-1.963206164E0,-1.864580593E0,-1.876083820E0,3.294014227E0
1.302881758E1,-2.591493579E0,-1.421024846E0,-2.832770162E0,4.093865822E0
1.303883658E1,-2.777505203E0,-7.971696210E-1,-3.523412869E0,4.556802915E0
1.304885458E1,-2.485244408E0,1.690090907E-1,-3.379286020E0,4.198163627E0
1.305887358E1,-1.409210547E0,1.293377790E0,-2.931370590E0,3.500233422E0
1.306889158E1,3.236387086E-1,2.265189124E0,-2.560381129E0,3.433857205E0
1.307891058E1,2.044046844E0,2.868096115E0,-2.086936755E0,4.093825576E0
1.308892958E1,3.332279668E0,2.963906837E0,-1.510810597E0,4.708649507E0
1.309894758E1,3.893041683E0,2.525756841E0,-1.179484992E0,4.788152672E0
1.310896658E1,3.759462626E0,1.983313569E0,-1.237042791E0,4.426891326E0
1.311898458E1,2.953672455E0,1.576991138E0,-1.405650762E0,3.631382118E0
1.312900358E1,1.753634938E0,1.133514914E0,-1.608657757E0,2.635881510E0
1.313902258E1,6.289042962E-1,5.461147392E-1,-1.880561764E0,2.056763105E0
1.314904058E1,-2.268362993E-1,-1.428813922E-1,-1.837555493E0,1.857008343E0
1.315905958E1,-7.098332691E-1,-6.633894199E-1,-1.474797596E0,1.766062496E0
1.316907858E1,-1.065428765E0,-9.176275259E-1,-9.972237723E-1,1.723842795E0
1.317909658E1,-1.449178605E0,-9.001338261E-1,-7.457198974E-1,1.861842555E0
1.318911558E1,-1.775518727E0,-7.274520993E-1,-7.476986682E-1,2.059297600E0
1.319913358E1,-1.901057278E0,-5.216757166E-1,-7.195150888E-1,2.098539085E0
1.320915258E1,-1.619109217E0,-3.950671256E-1,-6.764326577E-1,1.798653338E0
1.321917158E1,-1.078442329E0,-2.872912467E-1,-6.862175345E-1,1.310140688E0
1.322918958E1,-4.943271196E-1,-8.188265383E-2,-8.822417848E-1,1.014600728E0
1.323920858E1,9.673633575E-3,3.103058875E-1,-1.221269342E0,1.260111951E0
1.324922658E1,3.552855939E-1,8.209362137E-1,-1.406233145E0,1.666630066E0
1.325924558E1,6.060489920E-1,1.343434049E0,-1.392007893E0,2.027263278E0
1.326926458E1,8.878599358E-1,1.692478325E0,-1.121123056E0,2.215783169E0
1.327928258E1,1.180083016E0,1.793667900E0,-6.820892541E-1,2.252795200E0
1.328930158E1,1.286119641E0,1.678623932E0,-1.764679451E-1,2.122032745E0
1.329931958E1,1.291344128E0,1.352259836E0,1.417879629E-1,1.875174698E0
1.330933858E1,1.236816796E0,9.586632854E-1,2.688761719E-1,1.587780047E0
1.331935758E1,1.114716700E0,5.208009732E-1,3.309199539E-1,1.274101641E0
1.332937558E1,9.539872670E-1,7.426490128E-2,4.026721604E-1,1.038148279E0
1.333939458E1,7.716769302E-1,-2.223672724E-1,4.374302030E-1,9.144821873E-1
1.334941358E1,5.911885858E-1,-3.155069858E-1,4.126872714E-1,7.869938920E-1
1.335943158E1,4.001670671E-1,-2.180666453E-1,4.407093215E-1,6.339648645E-1
1.336945058E1,2.256686103E-1,-2.783976316E-2,5.324591517E-1,5.789767892E-1
1.337946858E1,7.994927198E-2,2.242296106E-1,6.714873751E-1,7.124367335E-1
1.338948758E1,5.612420708E-2,4.021451801E-1,8.307633367E-1,9.246828614E-1
1.339950658E1,9.917170107E-2,5.603801912E-1,1.036041390E0,1.182050231E0
1.340952458E1,2.066438171E-1,7.162242758E-1,1.249662690E0,1.455106772E0
1.341954358E1,3.515910307E-1,7.714114666E-1,1.450601964E0,1.680160100E0
1.342956258E1,4.742170832E-1,7.780346078E-1,1.601272724E0,1.842360993E0
1.343958058E1,5.342981011E-1,7.398563826E-1,1.588928229E0,1.832363185E0
1.344959958E1,5.788907218E-1,6.656025910E-1,1.398195416E0,1.653206490E0
1.345961758E1,6.679309523E-1,6.339463502E-1,1.117209953E0,1.447818294E0
1.346963658E1,7.572395700E-1,6.414220154E-1,9.266468561E-1,1.357758581E0
1.347965558E1,7.573623616E-1,6.464055973E-1,9.836104310E-1,1.399616884E0
1.348967358E1,6.194581193E-1,5.560520822E-1,1.123476999E0,1.398257075E0
1.349969258E1,4.980167127E-1,3.599838316E-1,9.233909802E-1,1.109170820E0
1.350971058E1,5.904685012E-1,7.378016710E-2,2.916776817E-1,6.627008630E-1
1.351972958E1,8.841223955E-1,-1.674373591E-1,-3.997342269E-1,9.846294387E-1
1.352974858E1,1.081912651E0,-2.902639711E-1,-6.490631568E-1,1.294631662E0
1.353976658E1,1.198237452E0,-4.993972403E-1,-1.011838742E-1,1.302078635E0
1.354978558E1,1.316171991E0,-8.462201589E-1,6.836158159E-1,1.707550248E0
1.355980358E1,1.355285186E0,-1.332991506E0,1.117393556E0,2.205047085E0
1.356982258E1,1.292868790E0,-1.767975819E0,1.334042397E0,2.564550121E0
1.357984158E1,1.104264802E0,-1.957500451E0,1.403764158E0,2.649860860E0
1.358985958E1,7.886405799E-1,-1.909985976E0,1.625198507E0,2.628929551E0
1.359987858E1,4.279226303E-1,-1.904619402E0,2.262130884E0,2.987964019E0
1.360989758E1,1.175205562E-1,-2.220776013E0,2.372779208E0,3.252036032E0
1.361991558E1,-3.307433680E-1,-2.789611863E0,9.174529865E-1,2.955172669E0
1.362993458E1,-1.059302930E0,-3.160680261E0,-7.329670469E-1,3.413101684E0
1.363995258E1,-1.627673634E0,-3.004846702E0,-1.075894404E0,3.582732746E0
1.364997158E1,-1.668873115E0,-2.393754194E0,-4.633006239E-1,2.954630955E0
1.365999058E1,-1.420244828E0,-1.769595498E0,-3.078158507E-1,2.289828420E0
1.367000858E1,-1.219046523E0,-1.567043270E0,-1.047437468E0,2.244732564E0
1.368002758E1,-8.802606019E-1,-1.716722050E0,-2.497089697E0,3.155542787E0
1.369004658E1,-4.381666598E-1,-1.678140367E0,-3.821008079E0,4.196218280E0
1.370006458E1,-1.272552931E-1,-9.494100666E-1,-4.102516429E0,4.212862974E0
1.371008358E1,6.881763518E-2,2.678059852E-1,-3.421373986E0,3.432529077E0
1.372010158E1,2.138990423E-1,1.500783792E0,-2.504504844E0,2.927567130E0
1.373012058E1,2.381895456E-1,2.476411019E0,-1.834370807E0,3.090996935E0
1.374013958E1,-7.870293796E-2,3.096537475E0,-1.435753252E0,3.414106894E0
1.375015758E1,-5.756846935E-1,3.409864619E0,-1.142112075E0,3.641841509E0
1.376017658E1,-9.653653640E-1,3.473777025E0,-1.059260099E0,3.757803755E0
1.377019458E1,-1.157908036E0,2.989657390E0,-1.099348756E0,3.389302290E0
1.378021358E1,-1.158228171E0,2.040434434E0,-1.004723557E0,2.552319455E0
1.379023258E1,-1.050778859E0,9.366023254E-1,-7.476213388E-1,1.593831168E0
1.380025058E1,-9.456073299E-1,-3.183575034E-2,-4.933693457E-1,1.067052037E0
1.381026958E1,-9.770785064E-1,-7.580125719E-1,-2.461033134E-1,1.260885525E0
1.382028758E1,-1.019232838E0,-1.264791337E0,-4.801528841E-2,1.625065590E0
1.383030658E1,-8.634960499E-1,-1.677310063E0,-1.457455046E-1,1.892151217E0
1.384032558E1,-4.042317590E-1,-1.828403869E0,-7.544266208E-1,2.018817364E0
1.385034358E1,1.778644064E-1,-1.664387716E0,-1.300508908E0,2.119704139E0
1.386036258E1,6.438269752E-1,-1.275655464E0,-1.359702172E0,1.972460401E0
1.387038158E1,9.792080623E-1,-6.743979728E-1,-1.213536984E0,1.698921148E0
1.388039896E1,1.201687894E0,4.712154150E-2,-9.864325896E-1,1.555417464E0
1.389041796E1,1.211498937E0,6.926880634E-1,-6.622018504E-1,1.544686932E0
1.390043596E1,1.023079721E0,1.193631892E0,-4.633976877E-1,1.638959007E0
1.391045496E1,6.987665364E-1,1.481883252E0,-5.535917200E-1,1.729368797E0
1.392047396E1,3.483747697E-1,1.530139738E0,-7.441128632E-1,1.736777634E0
1.393049196E1,4.083900064E-2,1.352334096E0,-7.395991051E-1,1.541908612E0
1.394051096E1,-2.077544957E-1,1.009870276E0,-4.701649627E-1,1.133161506E0
1.395052996E1,-4.208094925E-1,6.226144463E-1,-3.143799350E-2,7.521420910E-1
1.396054796E1,-5.909678534E-1,2.740443796E-1,2.946729179E-1,7.149653518E-1
1.397056696E1,-7.106413543E-1,4.496918142E-2,4.737402427E-1,8.552562068E-1
1.398058496E1,-7.523325866E-1,-1.431515336E-2,5.863925533E-1,9.539735170E-1
1.399060396E1,-6.872919604E-1,-3.172056019E-2,7.778436962E-1,1.038468704E0
1.400062296E1,-4.233445528E-1,2.054886997E-2,9.266550422E-1,1.018985983E0
1.401064096E1,-1.689786851E-2,1.751603615E-1,9.582358539E-1,9.742600484E-1
1.402065996E1,3.823763287E-1,3.812712049E-1,9.453732951E-1,1.088719457E0
1.403067796E1,7.591589186E-1,5.668302548E-1,9.474433556E-1,1.339876007E0
1.404069696E1,1.049881604E0,6.963472509E-1,1.042976188E0,1.635527501E0
1.405071596E1,1.228926563E0,7.556163830E-1,1.236608050E0,1.900109493E0
1.406073396E1,1.300468124E0,7.523185533E-1,1.397010916E0,2.051545770E0
1.407075296E1,1.296485585E0,6.970068169E-1,1.408078526E0,2.037002335E0
1.408077196E1,1.229641385E0,6.443602413E-1,1.329778461E0,1.922375825E0
1.409078996E1,1.038685063E0,6.623047614E-1,1.339356347E0,1.819722419E0
1.410080896E1,7.830120501E-1,7.599345517E-1,1.389286891E0,1.766557799E0
1.411082696E1,4.726026669E-1,8.098726970E-1,1.264568120E0,1.574287012E0
1.412084596E1,1.433728507E-1,7.411690825E-1,1.012978949E0,1.263334371E0
1.413086496E1,-8.258695096E-2,5.761495471E-1,8.015304744E-1,9.905654984E-1
1.414088296E1,-1.433599868E-1,4.075690573E-1,7.916592050E-1,9.018807677E-1
1.415090196E1,-1.777275816E-1,3.403225690E-1,9.765623434E-1,1.049323856E0
1.416091996E1,-2.695464090E-1,3.885749620E-1,1.018374321E0,1.122823238E0
1.417093896E1,-5.777154315E-1,4.314262819E-1,7.728428650E-1,1.056962559E0
1.418095796E1,-1.084519340E0,5.103385502E-1,7.031395228E-1,1.389616070E0
1.419097596E1,-1.517279372E0,6.505851871E-1,5.464209871E-1,1.738957640E0
1.420099496E1,-1.772959986E0,7.080065989E-1,4.340715623E-1,1.957824961E0
1.421101396E1,-1.743696426E0,4.785408068E-1,4.227057445E-1,1.856921828E0
1.422103196E1,-1.411767535E0,4.721275806E-2,6.844222932E-1,1.569633872E0
1.423105096E1,-1.100868155E0,-2.642093629E-1,1.421800626E0,1.817480207E0
1.424106896E1,-7.068742856E-1,-3.980135375E-1,1.879326832E0,2.046938048E0
1.425108796E1,-4.786793858E-2,-4.875501966E-1,2.065294017E0,2.122601214E0
1.426110696E1,7.788005930E-1,-4.366326427E-1,2.645562197E0,2.792163635E0
1.427112496E1,1.356918313E0,-8.517545485E-1,2.932827716E0,3.341884428E0
1.428114396E1,1.401166825E0,-1.652428406E0,1.281954085E0,2.517378474E0
1.429116196E1,8.521243849E-1,-2.462419801E0,-9.647881707E-1,2.778568599E0
1.430118096E1,-1.617602974E-2,-2.944727969E0,-2.087944961E0,3.609875155E0
1.431119996E1,-1.003486579E0,-2.938087286E0,-2.217115656E0,3.815094239E0
1.432121796E1,-2.080678773E0,-2.833619762E0,-2.153448833E0,4.122616522E0
1.433123696E1,-2.966257710E0,-2.805025708E0,-2.673068669E0,4.879769475E0
1.434125596E1,-3.205434265E0,-2.719744653E0,-3.318892468E0,5.356012231E0
1.435127396E1,-2.759986945E0,-2.221117491E0,-3.128711779E0,4.726492171E0
1.436129296E1,-1.828089289E0,-1.247974160E0,-2.599086188E0,3.413883268E0
1.437131096E1,-6.096540928E-1,-1.069707173E-1,-2.505561143E0,2.580883083E0
1.438132996E1,5.202671224E-1,1.017410261E0,-2.744204725E0,2.972618558E0
1.439134896E1,1.337155893E0,1.946732803E0,-2.740798137E0,3.617973040E0
1.440136696E1,1.922968549E0,2.312964385E0,-2.207052744E0,3.730776608E0
1.441138596E1,2.316552236E0,2.073299294E0,-1.259328722E0,3.354235093E0
1.442140396E1,2.484183723E0,1.814469370E0,-3.575667389E-1,3.096985927E0
1.443142296E1,2.339420112E0,1.746889005E0,6.514266014E-2,2.920402579E0
1.444144196E1,1.917697284E0,1.548278385E0,-4.646899223E-2,2.465134520E0
1.445145996E1,1.246772557E0,1.086080546E0,-4.134637085E-1,1.704395788E0
1.446147896E1,6.030397224E-1,4.532270408E-1,-9.188069824E-1,1.188813664E0
1.447149796E1,1.005510592E-1,-1.816227043E-1,-1.305921822E0,1.322319601E0
1.448151596E1,-2.468875712E-1,-6.536245698E-1,-1.253139006E0,1.434759882E0
1.449153496E1,-5.589698428E-1,-9.043648714E-1,-8.855491161E-1,1.383661932E0
1.450155296E1,-8.268120807E-1,-9.548035383E-1,-5.374621756E-1,1.372637463E0
1.451157196E1,-8.524152839E-1,-1.035486344E0,-3.751947784E-1,1.392700580E0
1.452159096E1,-5.011835647E-1,-1.074145795E0,-4.898927374E-1,1.282563467E0
1.453160896E1,-5.842216283E-2,-9.113762677E-1,-9.069556995E-1,1.287085270E0
1.454162796E1,3.644326857E-1,-7.808769393E-1,-1.414777097E0,1.656554922E0
1.455164696E1,7.074125218E-1,-4.050377977E-1,-1.939209044E0,2.103573106E0
1.456166496E1,7.782030076E-1,2.996797425E-1,-2.296971080E0,2.443662009E0
1.457168396E1,7.983954898E-1,8.885212559E-1,-2.260099854E0,2.556356143E0
1.458170196E1,9.108564502E-1,1.171252844E0,-1.724118193E0,2.274659588E0
1.459172096E1,9.404965711E-1,1.141423273E0,-1.032870811E0,1.803940964E0
1.460173996E1,9.133742613E-1,1.024395930E0,-5.004875998E-1,1.460865291E0
1.461175796E1,9.496056560E-1,9.562016076E-1,-1.275066503E-1,1.353635978E0
1.462177696E1,1.019144838E0,8.826968443E-1,1.108162849E-1,1.352808252E0
1.463179496E1,1.105286019E0,7.673657781E-1,2.051438601E-1,1.361099344E0
1.464181396E1,1.182618954E0,5.031950068E-1,2.754998247E-1,1.314417346E0
1.465183296E1,1.187228022E0,1.457085210E-1,3.004124717E-1,1.233283828E0
1.466185096E1,1.169177082E0,-1.296871501E-1,2.308294360E-1,1.198781062E0
1.467186996E1,1.183618828E0,-2.632398945E-1,1.211344278E-1,1.218573888E0
1.468188896E1,1.171556899E0,-2.584609652E-1,8.821577311E-2,1.202967024E0
1.469190696E1,1.073630655E0,-1.892790484E-1,1.613679492E-1,1.102065768E0
1.470192596E1,9.957264465E-1,-4.372723281E-2,2.899691252E-1,1.038010270E0
1.471194396E1,9.453635010E-1,1.742113584E-1,4.868251419E-1,1.077525158E0
1.472196296E1,8.591506916E-1,3.333059102E-1,7.328420627E-1,1.177408268E0
1.473198196E1,7.315141600E-1,3.705175906E-1,1.046932268E0,1.329835864E0
1.474199996E1,6.535628816E-1,3.063063920E-1,1.368676479E0,1.547334272E0
1.475201896E1,6.344687989E-1,2.092075288E-1,1.611386507E0,1.744386689E0
1.476203696E1,6.706513694E-1,9.087333262E-2,1.634259499E0,1.768851416E0
1.477205596E1,7.623453587E-1,-1.920751870E-2,1.411370801E0,1.604215357E0
1.478207496E1,9.048569146E-1,-6.095839262E-2,1.153323819E0,1.467187034E0
1.479209296E1,1.070837732E0,7.064372063E-2,9.980591932E-1,1.465539538E0
1.480211196E1,1.185236168E0,3.443928158E-1,9.773318370E-1,1.574347072E0
1.481213096E1,1.183477618E0,6.359975535E-1,1.076479272E0,1.721603840E0
1.482214896E1,1.134289085E0,7.742602301E-1,1.097774978E0,1.758181030E0
1.483216796E1,1.112862256E0,7.038281786E-1,8.515781088E-1,1.568126838E0
1.484218596E1,1.185368607E0,4.561980110E-1,3.814875519E-1,1.326178009E0
1.485220496E1,1.256326031E0,7.032387793E-2,5.289873675E-2,1.259404153E0
1.486222396E1,1.289894311E0,-4.807685959E-1,1.702672653E-1,1.387067669E0
1.487224196E1,1.368477674E0,-1.151082873E0,4.447706513E-1,1.842700154E0
1.488226079E1,1.508941827E0,-1.725994565E0,4.906761181E-1,2.344509699E0
1.489227979E1,1.661780735E0,-2.150021195E0,4.110968287E-1,2.748291643E0
1.490229779E1,1.666065282E0,-2.345218796E0,4.685479152E-1,2.914680407E0
1.491231679E1,1.501819333E0,-2.276253226E0,8.210237758E-1,2.847958936E0
1.492233479E1,1.231095295E0,-2.107462236E0,1.461886797E0,2.845014185E0
1.493235379E1,9.884414005E-1,-2.155935069E0,1.908823842E0,3.044450835E0
1.494237279E1,6.786722875E-1,-2.576503657E0,9.359472911E-1,2.823997963E0
1.495239079E1,-1.795212150E-2,-3.004162577E0,-8.680118546E-1,3.127100838E0
1.496240979E1,-8.416248322E-1,-2.951358712E0,-1.494805891E0,3.413692320E0
1.497242779E1,-1.222358970E0,-2.412253030E0,-7.437354255E-1,2.804686884E0
1.498244679E1,-1.188985695E0,-1.819453536E0,4.087525338E-2,2.173883378E0
1.499246579E1,-1.095765874E0,-1.582153645E0,-2.443941723E-1,1.940010700E0
1.500248379E1,-1.201778818E0,-1.732918253E0,-1.468008540E0,2.569499381E0
1.501250279E1,-1.357167697E0,-1.829982617E0,-2.617380079E0,3.470074785E0
1.502252179E1,-1.262453913E0,-1.571299458E0,-2.900257263E0,3.531892419E0
1.503253979E1,-8.474618152E-1,-1.091895018E0,-2.666368637E0,3.003322821E0
1.504255879E1,-2.670090097E-1,-4.308327895E-1,-2.456438977E0,2.508187224E0
1.505257679E1,2.651346847E-1,5.549434501E-1,-2.298176630E0,2.379049066E0
1.506259579E1,6.793730763E-1,1.608379576E0,-2.215694198E0,2.820945483E0
1.507261479E1,9.460248211E-1,2.529311364E0,-2.004618484E0,3.363164314E0
1.508263279E1,9.163876238E-1,3.155610725E0,-1.647577994E0,3.675888814E0
1.509265179E1,5.551975116E-1,3.475925876E0,-1.154476597E0,3.704473133E0
1.510266979E1,2.586165011E-2,3.453839774E0,-7.178041935E-1,3.527735941E0
1.511268879E1,-4.348050955E-1,3.034675688E0,-5.464934926E-1,3.113995366E0
1.512270779E1,-8.273997259E-1,2.181486817E0,-4.689512269E-1,2.379787867E0
1.513272579E1,-1.192140852E0,1.065632249E0,-3.724117962E-1,1.641786358E0
1.514274479E1,-1.502924457E0,2.767662585E-2,-3.333509338E-1,1.539698271E0
1.515276379E1,-1.736026633E0,-8.288135827E-1,-3.598084152E-1,1.957085210E0
1.516278179E1,-1.702618859E0,-1.495580939E0,-5.334789062E-1,2.328147991E0
1.517280079E1,-1.344330427E0,-1.842565241E0,-8.348841619E-1,2.428847984E0
1.518281879E1,-8.097826499E-1,-1.801968607E0,-1.016032072E0,2.221521995E0
1.519283779E1,-3.062277469E-1,-1.423905185E0,-1.081132486E0,1.813871236E0
1.520285679E1,1.142996174E-1,-8.926809651E-1,-1.370397899E0,1.639492028E0
1.521287479E1,4.716431388E-1,-3.478257161E-1,-1.690784240E0,1.789463977E0
1.522289379E1,6.398698720E-1,1.805123180E-1,-1.573831741E0,1.708497732E0
1.523291279E1,6.077464387E-1,6.240084225E-1,-1.141778638E0,1.436106090E0
1.524293079E1,5.690738314E-1,8.400683033E-1,-9.058703832E-1,1.360206209E0
1.525294979E1,5.804957825E-1,8.264331812E-1,-1.011949693E0,1.429688545E0
1.526296779E1,5.084487301E-1,7.322362912E-1,-1.001501888E0,1.340781909E0
1.527298679E1,4.130338651E-1,4.929454225E-1,-6.269829011E-1,8.981646406E-1
1.528300579E1,3.592921060E-1,2.558653861E-1,-1.300303817E-1,4.598541219E-1
1.529302379E1,2.707050347E-1,2.397463667E-1,2.555956833E-1,4.428190257E-1
1.530304279E1,1.743490604E-1,3.681804585E-1,3.943303764E-1,5.669663929E-1
1.531306079E1,6.686671168E-2,4.610418445E-1,4.282056355E-1,6.327644157E-1
1.532307979E1,5.413410723E-2,4.636947262E-1,4.755224741E-1,6.663819656E-1
1.533309879E1,1.557215855E-1,4.223876560E-1,5.869471617E-1,7.397077225E-1
1.534311679E1,3.915392080E-1,4.073451090E-1,7.058842789E-1,9.041601653E-1
1.535313579E1,7.222609413E-1,4.159644896E-1,8.635322296E-1,1.200156338E0
1.536315479E1,9.989193186E-1,4.470909727E-1,1.067232778E0,1.528632050E0
1.537317279E1,1.185023037E0,4.707143086E-1,1.232413989E0,1.773329015E0
1.538319179E1,1.227480254E0,5.014449352E-1,1.283450972E0,1.845372915E0
1.539320979E1,1.151652685E0,4.862626398E-1,1.210634499E0,1.740227327E0
1.540322879E1,1.031366103E0,4.324296641E-1,1.135779541E0,1.593959415E0
1.541324779E1,9.922920844E-1,4.108218634E-1,1.178559013E0,1.594496639E0
1.542326579E1,9.761411977E-1,4.377114540E-1,1.170397469E0,1.585645985E0
1.543328479E1,9.225725162E-1,6.824998748E-1,1.109923153E0,1.596519819E0
1.544330379E1,8.103059757E-1,9.219223058E-1,1.221578075E0,1.731701332E0
1.545332179E1,6.682543033E-1,1.043189465E0,1.401864105E0,1.870836990E0
1.546334079E1,6.187280944E-1,1.072444839E0,1.237519923E0,1.750547900E0
1.547335879E1,6.575743639E-1,9.137724566E-1,7.617717469E-1,1.359294060E0
1.548337779E1,7.332370421E-1,5.317925692E-1,2.167914406E-1,9.313637449E-1
1.549339679E1,6.763743317E-1,1.130524063E-1,-2.123146661E-1,7.178722732E-1
1.550341479E1,2.187738660E-1,-1.171103740E-1,-4.405783439E-1,5.056541518E-1
1.551343379E1,-8.407497963E-1,2.372741640E-2,-2.276730359E-1,8.713542457E-1
1.552345179E1,-1.834044093E0,2.872485620E-1,-1.318113705E-1,1.861075955E0
1.553347079E1,-2.153952278E0,-7.114307284E-3,-7.967532992E-2,2.155437123E0
1.554348979E1,-1.969459176E0,-8.143183351E-1,5.335408866E-1,2.196940981E0
1.555350779E1,-1.664876251E0,-1.784429299E0,1.258652784E0,2.745943861E0
1.556352679E1,-1.734176574E0,-2.662722021E0,7.499078925E-1,3.264937794E0
1.557354579E1,-2.121114608E0,-3.456794956E0,-1.373263035E0,4.281869908E0
1.558356379E1,-2.262259962E0,-4.225306789E0,-2.901103940E0,5.602449613E0
1.559358279E1,-1.794722738E0,-4.409463091E0,-2.539190819E0,5.395543020E0
1.560360079E1,-5.566169232E-1,-3.557171184E0,-1.671555379E0,3.969557484E0
1.561361979E1,9.545070845E-1,-2.023924236E0,-1.582434457E0,2.740702811E0
1.562363879E1,2.095713426E0,-4.118995053E-1,-2.162934186E0,3.039730294E0
1.563365679E1,2.794013062E0,9.089578593E-1,-2.810983436E0,4.066244122E0
1.564367579E1,3.034281585E0,1.798448583E0,-2.953386526E0,4.600410201E0
1.565369479E1,2.776747988E0,2.228354589E0,-2.441684990E0,4.317142476E0
1.566371279E1,2.277406297E0,2.047380341E0,-1.877014697E0,3.591869969E0
1.567373179E1,1.696255041E0,1.747404730E0,-1.421783230E0,2.819959576E0
1.568374979E1,1.055503117E0,1.623582922E0,-1.126599412E0,2.240387147E0
1.569376879E1,4.716785145E-1,1.542394917E0,-1.196324974E0,2.008147441E0
1.570378779E1,4.774426997E-2,1.381701736E0,-1.481181586E0,2.026148586E0
1.571380579E1,-1.602616560E-1,1.110307900E0,-1.672947017E0,2.014253994E0
1.572382479E1,-1.486941093E-1,7.327303809E-1,-1.679715607E0,1.838599540E0
1.573384379E1,3.563117802E-2,3.523625708E-1,-1.554105721E0,1.593949043E0
1.574386179E1,2.388844872E-1,4.087788463E-2,-1.392957773E0,1.413884068E0
1.575388079E1,3.283544880E-1,-2.404942256E-1,-1.203545115E0,1.270501864E0
1.576389879E1,1.285527903E-1,-5.517947245E-1,-1.008164936E0,1.156460019E0
1.577391779E1,-3.677284688E-1,-1.018036498E0,-1.038382469E0,1.499953563E0
1.578393679E1,-9.467794043E-1,-1.402396787E0,-1.334669219E0,2.155098585E0
1.579395479E1,-1.434479290E0,-1.619354800E0,-1.488512825E0,2.625968627E0
1.580397379E1,-1.602273329E0,-1.691181997E0,-1.285611957E0,2.660859724E0
1.581399179E1,-1.277935878E0,-1.548657285E0,-8.371669149E-1,2.175386848E0
1.582401079E1,-5.572145087E-1,-1.238490561E0,-4.121678194E-1,1.419235425E0
1.583402979E1,3.070928425E-1,-8.597599715E-1,-2.067587149E-1,9.360781958E-1
1.584404779E1,1.090269492E0,-4.170140648E-1,-2.979460430E-1,1.204724093E0
1.585406679E1,1.618725055E0,1.574123079E-1,-5.378852217E-1,1.713000277E0
1.586408579E1,1.916730739E0,7.061208719E-1,-6.441583662E-1,2.141822452E0
1.587410379E1,1.987751606E0,9.987512112E-1,-4.613792288E-1,2.271900354E0
1.588412267E1,1.847092740E0,1.106005518E0,-1.729744530E-1,2.159842577E0
1.589414067E1,1.488020489E0,1.012476965E0,2.788668707E-2,1.800025624E0
1.590415967E1,1.008130145E0,8.141744936E-1,1.771052916E-1,1.307888673E0
1.591417867E1,4.194634634E-1,6.784337211E-1,1.845800798E-1,8.187134522E-1
1.592419667E1,-1.129696682E-1,5.613566762E-1,1.033566264E-1,5.818642935E-1
1.593421567E1,-3.838048035E-1,4.777812535E-1,-6.225062728E-2,6.160001574E-1
1.594423467E1,-3.596511251E-1,4.914766020E-1,-2.455853963E-1,6.566661015E-1
1.595425267E1,-6.779408008E-2,5.471450186E-1,-3.935081117E-1,6.773568798E-1
1.596427167E1,3.857758999E-1,6.103996128E-1,-3.942894459E-1,8.227240724E-1
1.597428967E1,9.262895912E-1,5.785533375E-1,-2.266263843E-1,1.115390465E0
1.598430867E1,1.464814060E0,4.089975321E-1,-3.828391358E-2,1.521323394E0
1.599432767E1,1.844665561E0,2.520839918E-1,4.358499929E-2,1.862320333E0
1.600434567E1,1.905956660E0,1.722326607E-1,-9.059675932E-3,1.913744224E0
1.601436467E1,1.713593205E0,1.041342330E-1,-1.282140903E-1,1.721535496E0
1.602438367E1,1.365423965E0,3.578846812E-2,-2.455875890E-1,1.387795620E0
1.603440167E1,9.467124537E-1,-2.359234571E-2,-2.844035992E-1,9.887904105E-1
1.604442067E1,5.324310851E-1,-6.505085886E-2,-1.888415305E-1,5.686612333E-1
1.605443867E1,1.475568259E-1,-1.005779564E-1,1.399721101E-2,1.791224835E-1
1.606445767E1,-1.354320395E-1,-1.705550945E-1,2.857826650E-1,3.593085153E-1
1.607447667E1,-3.404126161E-1,-2.757815874E-1,5.492033847E-1,7.025386757E-1
1.608449467E1,-5.004564634E-1,-3.210811365E-1,7.512083133E-1,9.580520330E-1
1.609451367E1,-6.767681417E-1,-2.863247019E-1,9.402698453E-1,1.193358427E0
1.610453267E1,-8.890343490E-1,-1.570608902E-1,1.030117869E0,1.369741954E0
1.611455067E1,-1.079040791E0,5.733136475E-2,9.772556770E-1,1.456929845E0
1.612456967E1,-1.164678819E0,3.137808877E-1,7.406691456E-1,1.415459636E0
1.613458767E1,-9.923432475E-1,5.503720969E-1,4.454069746E-1,1.219033198E0
1.614460667E1,-5.809998125E-1,6.947170472E-1,3.277903779E-1,9.631402232E-1
1.615462567E1,-8.347134233E-2,7.156839931E-1,4.100665493E-1,8.290510345E-1
1.616464367E1,4.124614227E-1,5.886017776E-1,5.441372108E-1,9.014775549E-1
1.617466267E1,8.698300463E-1,3.287614542E-1,5.822926319E-1,1.097156831E0
1.618468167E1,1.284303788E0,-1.145235658E-2,4.541802831E-1,1.362294794E0
1.619469967E1,1.662758389E0,-3.911717105E-1,1.287052564E-1,1.712993232E0
1.620471867E1,2.007294462E0,-7.279871196E-1,-2.772164941E-1,2.153147763E0
1.621473667E1,2.296621417E0,-8.982557005E-1,-5.839614272E-1,2.534234437E0
1.622475567E1,2.503818673E0,-9.806751287E-1,-7.180673182E-1,2.783244928E0
1.623477467E1,2.696747846E0,-1.012544793E0,-7.216868909E-1,2.969600625E0
1.624479267E1,2.828206410E0,-1.021236094E0,-7.324514687E-1,3.094860225E0
1.625481167E1,2.872823589E0,-1.028520555E0,-7.695590687E-1,3.146933597E0
1.626482967E1,2.818763157E0,-1.030471187E0,-7.247015691E-1,3.087472909E0
1.627484867E1,2.703130959E0,-1.040454138E0,-5.480875897E-1,2.947857154E0
1.628486767E1,2.557846653E0,-1.151036096E0,-2.967989655E-1,2.820559026E0
1.629488567E1,2.413933520E0,-1.310140588E0,-4.078900695E-2,2.746854044E0
1.630490467E1,2.315265849E0,-1.453188041E0,1.393205841E-1,2.737082691E0
1.631492367E1,2.261559758E0,-1.545992124E0,2.704841562E-1,2.752799641E0
1.632494167E1,2.215903821E0,-1.525312276E0,3.868905254E-1,2.717810067E0
1.633496067E1,2.136390459E0,-1.414843755E0,3.261648519E-1,2.583085471E0
1.634497967E1,1.955408317E0,-1.227266831E0,4.445287228E-2,2.309065096E0
1.635499767E1,1.770531052E0,-1.056481356E0,-1.186034605E-2,2.061813214E0
1.636501667E1,1.640525814E0,-9.801056099E-1,-1.648578599E-2,1.911073974E0
1.637503467E1,1.320272351E0,-9.863668084E-1,-5.472875445E-1,1.736537422E0
1.638505367E1,6.492663476E-1,-1.111550433E0,-1.838249996E0,2.244160021E0
1.639507267E1,-4.209580117E-1,-1.369591568E0,-3.367507389E0,3.659657460E0
1.640509067E1,-1.847781542E0,-1.620040678E0,-4.108260734E0,4.787132198E0
1.641510967E1,-3.264903080E0,-1.785882917E0,-3.970243056E0,5.441672522E0
