"Time (s)","Linear Acceleration x (m/s^2)","Linear Acceleration y (m/s^2)","Linear Acceleration z (m/s^2)","Absolute acceleration (m/s^2)"
3.657666666E-3,1.377256683E0,-1.674344940E0,2.030104158E0,2.970116132E0
1.367566667E-2,1.612499524E0,-9.119873017E-2,9.829964733E-1,1.890701984E0
2.369466667E-2,2.272215723E0,-1.439507018E-1,7.767966791E-1,2.405639038E0
3.371266667E-2,2.806568788E0,-1.017982265E0,3.564650504E-1,3.006689806E0
4.373166667E-2,2.803468595E0,-1.390361170E0,7.773420051E-2,3.130268830E0
5.374966667E-2,2.185779258E0,-8.585509135E-1,4.429397419E-2,2.348766185E0
6.376866667E-2,1.314424843E0,-3.629009344E-1,-2.991913538E-1,1.396039119E0
7.378666667E-2,1.626443380E0,-5.186015430E-1,-5.377099514E-2,1.707968661E0
8.380566667E-2,6.742997396E-1,3.195827875E-1,-6.178706002E-1,9.688020311E-1
9.382366667E-2,5.242555082E-1,3.857276604E-1,-1.118801638E0,1.294351873E0
1.038416667E-1,5.111238313E-1,-4.030851200E-1,-1.292117715E-1,6.636421225E-1
1.138606667E-1,-2.750348979E-1,-1.600622952E0,1.123698024E0,1.974926651E0
1.238786667E-1,-5.923492581E-1,-2.565769923E0,2.065554657E0,3.346725113E0
1.338976667E-1,-2.689727386E0,-2.106933209E0,2.621353555E0,4.306424900E0
1.439156667E-1,-4.044260620E0,-9.844278717E-1,2.052010167E0,4.640677528E0
1.539346667E-1,-3.437779811E0,-2.245151740E0,1.302992805E-1,4.108042632E0
1.639526667E-1,-2.870247306E0,-2.950727212E0,-3.171064332E0,5.196225522E0
1.739716667E-1,-3.222492932E0,-2.830494718E0,-4.757819735E0,6.405701341E0
1.839896667E-1,-3.218412745E0,-2.230601967E0,-4.001801648E0,5.598944736E0
1.940086667E-1,-3.205840647E0,-1.255882227E0,-1.544312804E0,3.773533683E0
2.040266667E-1,-3.002948695E0,-8.011075746E-1,6.383968122E-1,3.172857498E0
2.140446667E-1,-2.740808077E0,-9.722364271E-1,8.568779520E-1,3.031750717E0
2.240636667E-1,-2.375370548E0,-1.656417669E0,-5.274048185E-1,2.943511606E0
2.340816667E-1,-1.996380342E0,-1.823747147E0,-1.507181815E0,3.095672002E0
2.441006667E-1,-1.380649238E0,-8.855894619E-1,-1.150149658E0,2.003323550E0
2.541186667E-1,-7.573056436E-1,8.595035711E-1,4.717803291E-1,1.238884541E0
2.641376667E-1,-2.864632809E-1,7.459379985E-1,8.522549971E-1,1.168256517E0
2.741556667E-1,6.846656835E-1,-8.090939210E-1,7.835923132E-1,1.318111143E0
2.841736667E-1,1.979294778E0,-8.168014283E-1,5.621849343E-2,2.141946056E0
2.941926667E-1,2.994621676E0,7.794439329E-1,-7.324174087E-1,3.179894194E0
3.042106667E-1,3.844951258E0,1.919477615E0,-1.428991824E0,4.528803608E0
3.142296667E-1,3.351693009E0,2.703687029E0,-1.417579228E0,4.533574798E0
3.242476667E-1,1.573460004E0,5.026429127E0,-1.498888417E-1,5.269082731E0
3.342666667E-1,8.728904790E-1,4.550187446E0,1.637742101E0,4.914096333E0
3.442846667E-1,1.488306418E0,3.160526772E-1,-1.696597542E0,2.278900724E0
3.543036667E-1,4.640326953E-1,4.933152589E-1,-2.317452707E0,2.414388812E0
3.643216667E-1,-1.726864046E-1,4.329996215E-1,-1.080410940E0,1.176689027E0
3.743406667E-1,-5.539780748E-1,-3.783680624E-1,5.624120986E-1,8.754207369E-1
3.843586667E-1,-5.472081685E-1,-9.025569123E-1,1.555555830E0,1.879840339E0
3.943766667E-1,-8.056855059E-1,-8.843605234E-1,2.715668851E0,2.967503998E0
4.043956667E-1,-1.512745441E0,-1.080913800E0,3.170578136E0,3.675505288E0
4.144136667E-1,-1.873489995E0,-2.028379960E0,1.854893803E0,3.326397608E0
4.244326667E-1,-2.700259976E0,-1.960996939E0,1.109151028E0,3.516692898E0
4.344506667E-1,-2.907248486E0,-1.623832744E0,1.185177111E0,3.534624637E0
4.444696667E-1,-2.417119083E0,-1.385159341E0,1.610486620E0,3.217887229E0
4.544876667E-1,-1.491367435E0,-1.499073481E0,1.884532462E0,2.832465486E0
4.645066667E-1,-3.649995732E-1,-1.623925715E0,1.434552087E0,2.197339097E0
4.745246667E-1,1.298374236E-1,-1.019574169E0,7.648245782E-1,1.281150217E0
4.845426667E-1,-1.772934258E-1,-6.969588697E-2,-1.459434621E0,1.471815168E0
4.945616667E-1,-4.521979308E-1,1.584310390E-1,-3.282908411E0,3.317690612E0
5.045796667E-1,-8.030495811E-1,1.853535202E-1,-2.547082222E0,2.677101492E0
5.145986667E-1,-9.048607153E-1,2.624785870E-2,-1.737317698E0,1.959013693E0
5.246166667E-1,-8.360407412E-1,-8.285340858E-1,-1.451777108E0,1.868980905E0
5.346356667E-1,-1.321917465E0,-1.610076146E0,-1.377626227E0,2.497531782E0
5.446536667E-1,-1.766869526E0,-2.281884679E0,-1.353032984E0,3.187400801E0
5.546726667E-1,-2.172581508E0,-3.105750348E0,-1.392336652E0,4.037870353E0
5.646906667E-1,-2.615555456E0,-3.786140547E0,-9.071194947E-1,4.690293846E0
5.747086667E-1,-3.072013668E0,-4.000791249E0,-4.326647222E-1,5.062686773E0
5.847276667E-1,-3.475981425E0,-3.929268107E0,-2.073539615E-1,5.250199081E0
5.947456667E-1,-4.199326440E0,-3.670641374E0,2.132713437E-2,5.577490967E0
6.047646667E-1,-5.074107909E0,-3.461097922E0,-8.101331905E-2,6.142664980E0
6.147826667E-1,-4.531869873E0,-3.338508707E0,2.157451910E-1,5.632941587E0
6.248016667E-1,-2.549314688E0,-3.210321953E0,6.150990200E-1,4.145300861E0
6.348196667E-1,-1.149266143E0,-2.534700158E0,1.247183032E0,3.049751313E0
6.448386667E-1,-7.683323228E-1,-2.166409187E0,2.114426855E0,3.123213769E0
6.548566667E-1,-3.134569520E-1,-2.972080075E0,3.971005533E0,4.969949715E0
6.648756667E-1,2.407304531E-1,-4.685941082E0,2.058839422E0,5.123945232E0
6.748936667E-1,2.784665703E0,-6.201014884E0,6.824633297E-1,6.831742447E0
6.849116667E-1,4.871231745E0,-5.842850121E0,-1.118152524E0,7.688827044E0
6.949306667E-1,5.613825209E0,-4.076985732E0,-3.655496208E0,7.842161607E0
7.049486667E-1,5.888431506E0,-2.208983787E0,-4.210395804E0,7.568399289E0
7.149676667E-1,5.645529982E0,1.100874441E0,-6.259336182E0,8.500777774E0
7.249856667E-1,4.793383670E0,5.088123685E0,-8.575017183E0,1.106329288E1
7.350046667E-1,4.078933439E0,7.521769338E0,-9.483203795E0,1.277285662E1
7.450226667E-1,3.498340008E0,8.333609038E0,-8.817218796E0,1.262658979E1
7.550416667E-1,2.774154748E0,7.900461336E0,-6.567325988E0,1.064156918E1
7.650596667E-1,1.742570252E0,7.068548729E0,-4.660076509E0,8.643913771E0
7.750786667E-1,-1.774852145E-1,6.632742298E0,-3.655136604E0,7.575275242E0
7.850966667E-1,-2.554456145E0,6.324679402E0,-2.768042654E0,7.361309386E0
7.951146667E-1,-4.652371632E0,5.925713353E0,-1.768420208E0,7.738601332E0
8.051336667E-1,-5.834030181E0,5.259607902E0,-5.457910958E-1,7.873834603E0
8.151516667E-1,-5.521162044E0,3.845179299E0,1.091355027E0,6.816134532E0
8.251706667E-1,-4.187787545E0,2.426645951E0,2.746549751E0,5.565043632E0
8.351886667E-1,-2.628890031E0,1.683130673E0,3.882570197E0,4.981801179E0
8.452076667E-1,-1.160201606E0,1.230741246E0,4.012300909E0,4.354233614E0
8.552256667E-1,9.237314343E-2,7.528587630E-1,3.288945953E0,3.375276966E0
8.652446667E-1,1.204080282E0,2.869806133E-1,2.326872279E0,2.635621711E0
8.752626667E-1,1.995245982E0,1.159871969E-1,7.865735891E-1,2.147826243E0
8.852806667E-1,2.727224995E0,-2.740758084E-2,-7.195919797E-1,2.820694944E0
8.952996667E-1,2.799815839E0,3.864647019E-1,-1.356205537E0,3.134903054E0
9.053176667E-1,2.086523357E0,1.174983294E0,-2.216899894E0,3.263251538E0
9.153366667E-1,1.508932471E0,1.342651691E0,-3.046739078E0,3.655435648E0
9.253546667E-1,1.881839234E0,1.809870973E0,-1.891276056E0,3.223953623E0
9.353736667E-1,1.947961303E0,1.739929211E0,-2.840702494E0,3.858950318E0
9.453916667E-1,2.165241498E0,6.936961234E-1,-3.243430642E0,3.960975560E0
9.554106667E-1,1.891913402E0,-2.400536379E-1,-3.233857580E0,3.754303786E0
9.654286667E-1,1.389621205E0,-8.571819341E-1,-2.990733862E0,3.407388589E0
9.754476667E-1,6.684051615E-1,-1.260023225E0,-2.536874152E0,2.910352977E0
9.854656667E-1,7.066009283E-2,-1.411361738E0,-2.270879050E0,2.674663804E0
9.954836667E-1,-3.271628255E-1,-1.226470440E0,-2.188884714E0,2.530312539E0
1.005503333E0,-6.807948267E-1,-8.312401772E-1,-2.025068536E0,2.292453795E0
1.015521333E0,-8.946111310E-1,-4.258723041E-1,-1.890130001E0,2.134077720E0
1.025540333E0,-9.974864584E-1,-5.539008915E-2,-1.741791987E0,2.007955832E0
1.035558333E0,-1.128795626E0,4.129793398E-2,-1.694477195E0,2.036452320E0
1.045577333E0,-1.249923037E0,9.218135476E-3,-1.513816066E0,1.963168779E0
1.055595333E0,-1.472466896E0,-3.012777865E-2,-1.111184982E0,1.844938618E0
1.065614333E0,-1.723958564E0,-9.826567501E-2,-8.389187407E-1,1.919758820E0
1.075632333E0,-1.651296970E0,-3.084067118E-1,-7.678645456E-1,1.847027975E0
1.085651333E0,-1.383733644E0,-6.407235655E-1,-6.962572038E-1,1.676311301E0
1.095669333E0,-1.342361670E0,-8.968509069E-1,-4.870005584E-1,1.686252041E0
1.105687333E0,2.749922132E-1,-3.217264059E0,5.826090247E0,6.661061200E0
1.115706333E0,1.141187630E0,-3.347113177E0,7.186109923E0,8.009098055E0
1.125724333E0,2.073504531E-1,-1.714527006E0,2.962577180E0,3.429206994E0
1.135743333E0,-4.091062903E-1,-7.196191692E-1,1.196623328E0,1.455035083E0
1.145761333E0,1.352227092E-1,-1.123014484E0,2.014056767E0,2.309950513E0
1.155780333E0,-2.579446560E-1,-4.784773645E-1,-1.409459492E0,1.510646251E0
1.165798333E0,-1.047154462E-1,-6.462661412E-1,-1.687973045E0,1.810491163E0
1.175817333E0,-9.456701875E-2,-8.484359613E-1,-1.078589094E0,1.375551138E0
1.185835333E0,-2.622178012E-1,-6.281839192E-1,-8.018589418E-1,1.051832199E0
1.195854333E0,-3.186580503E-1,3.407131996E-1,-6.878671803E-1,8.311375909E-1
1.205872333E0,-2.365993953E-1,1.567703713E0,-1.459333465E-1,1.592159146E0
1.215890333E0,-1.232335782E-1,2.174090089E0,8.516164081E-1,2.338184068E0
1.225909333E0,4.898797274E-2,2.279992813E0,1.545050722E0,2.754623165E0
1.235927333E0,3.368119007E-1,2.163545513E0,1.664304832E0,2.750323984E0
1.245946333E0,4.920800346E-1,1.840797920E0,1.584160701E0,2.477951749E0
1.255964333E0,5.947898859E-1,1.091693873E0,1.296523007E0,1.796257896E0
1.265983333E0,7.162733924E-1,6.849607486E-2,8.544841750E-1,1.117086608E0
1.276001333E0,7.829661494E-1,-7.276418415E-1,2.842575650E-1,1.106029387E0
1.286020333E0,9.224403691E-1,-1.249441227E0,-2.993036934E-1,1.581639123E0
1.296038333E0,9.989418304E-1,-1.635811204E0,-8.310073118E-1,2.089099382E0
1.306057333E0,1.059718375E0,-1.967389846E0,-1.200275499E0,2.536589662E0
1.316075333E0,1.013174538E0,-2.296817006E0,-1.316159127E0,2.834460416E0
1.326093333E0,8.825781459E-1,-2.486334913E0,-1.112087646E0,2.863135417E0
1.336112333E0,7.932730365E-1,-2.417983740E0,-7.082942089E-1,2.641516262E0
1.346130333E0,6.950813287E-1,-2.186478585E0,-1.256074381E-1,2.297738863E0
1.356149333E0,6.992445463E-1,-1.850265732E0,4.440212210E-1,2.027210166E0
1.366167333E0,8.192773587E-1,-1.521813741E0,7.263481450E-1,1.874757073E0
1.376186333E0,9.444399333E-1,-1.194694039E0,7.938963497E-1,1.717420172E0
1.386204333E0,9.224356914E-1,-8.533259878E-1,7.306727457E-1,1.453593997E0
1.396223333E0,7.310282564E-1,-3.579707815E-1,4.680626329E-1,9.389504888E-1
1.406241333E0,3.507089782E-1,2.022578207E-1,1.951496530E-1,4.494311966E-1
1.416260333E0,-6.560868323E-2,6.998118724E-1,-3.317357501E-2,7.036630175E-1
1.426278333E0,-4.290628374E-1,1.025638024E0,-2.159025542E-1,1.132537941E0
1.436296333E0,-6.935101819E-1,1.185313936E0,-3.595171873E-1,1.419569691E0
1.446315333E0,-8.724057448E-1,1.202361785E0,-4.575200300E-1,1.554377761E0
1.456333333E0,-1.014570268E0,1.098674864E0,-5.215482473E-1,1.583809288E0
1.466352333E0,-1.098417587E0,8.698413022E-1,-5.127610151E-1,1.492001657E0
1.476370333E0,-1.173421576E0,5.159815519E-1,-3.569725156E-1,1.330633133E0
1.486389333E0,-1.177238638E0,1.361728817E-2,-1.322476459E-1,1.184721774E0
1.496407333E0,-1.074552761E0,-4.930038947E-1,1.130898285E-1,1.187647164E0
1.506426333E0,-1.002623822E0,-9.485090107E-1,3.522315931E-1,1.424426540E0
1.516444333E0,-9.961603099E-1,-1.394791460E0,5.891970241E-1,1.812438057E0
1.526463333E0,-1.068317290E0,-1.778854418E0,7.614244223E-1,2.210292293E0
1.536481333E0,-1.187587625E0,-2.065359360E0,9.274572802E-1,2.556609212E0
1.546499333E0,-1.383971626E0,-2.190986496E0,1.084798837E0,2.809374984E0
1.556518333E0,-1.664218147E0,-2.095026086E0,1.203325991E0,2.933726262E0
1.566536333E0,-1.902489261E0,-1.875297077E0,1.283385483E0,2.963660374E0
1.576555333E0,-2.105694623E0,-1.586464212E0,1.303816824E0,2.941216900E0
1.586573333E0,-2.241555263E0,-1.332519344E0,1.281603252E0,2.905629828E0
1.596592333E0,-2.225256734E0,-1.151468643E0,1.205176635E0,2.780305431E0
1.606610333E0,-2.068744898E0,-9.829898952E-1,1.111607151E0,2.545907509E0
1.616629333E0,-1.838986745E0,-7.752738449E-1,1.037874931E0,2.249467972E0
1.626647333E0,-1.578359971E0,-5.152975738E-1,1.004753963E0,1.940691195E0
1.636666333E0,-1.226928862E0,-1.161053838E-1,9.524488646E-1,1.557560186E0
1.646684333E0,-8.175997925E-1,4.006222728E-1,9.267252088E-1,1.299148659E0
1.656702333E0,-3.830411571E-1,9.510383700E-1,9.409666872E-1,1.391622368E0
1.666721333E0,9.256259322E-2,1.599968795E0,7.887613249E-1,1.786228543E0
1.676739333E0,5.419211161E-1,2.057996400E0,6.945884085E-1,2.238633676E0
1.686758333E0,9.475576687E-1,2.163363518E0,5.713677307E-1,2.429911178E0
1.696776333E0,1.325206524E0,1.810914263E0,2.883474000E-1,2.262460391E0
1.706795333E0,1.570855070E0,1.166658540E0,-4.463787087E-1,2.006970790E0
1.716813333E0,1.694643549E0,4.277005823E-1,-1.311629727E0,2.185204129E0
1.726832333E0,1.683436775E0,-2.083848256E-1,-2.168047869E0,2.752783169E0
1.736850333E0,1.565518316E0,-6.712917857E-1,-3.222476560E0,3.644973997E0
1.746869333E0,1.267899132E0,-9.552881263E-1,-4.227121764E0,4.515385036E0
1.756887333E0,7.988834399E-1,-1.115847113E0,-4.497715702E0,4.702422362E0
1.766906333E0,2.464016676E-1,-1.378664108E0,-4.167679847E0,4.396701470E0
1.776924333E0,-2.996347189E-1,-1.792713342E0,-3.698151062E0,4.120670257E0
1.786942333E0,-5.720576656E-1,-2.253808250E0,-3.174874377E0,3.935318146E0
1.796961333E0,-3.516983271E-1,-2.615734380E0,-2.840695185E0,3.877538807E0
1.806979333E0,1.564638895E-1,-2.947935752E0,-2.418546388E0,3.816303549E0
1.816998333E0,6.667673564E-1,-3.272208298E0,-1.793464855E0,3.790572786E0
1.827016333E0,1.166233009E0,-3.438672096E0,-1.381136895E0,3.884855768E0
1.837035333E0,1.568613247E0,-3.315610426E0,-1.265073027E0,3.879978064E0
1.847053333E0,1.841736106E0,-2.947004290E0,-1.172049819E0,3.667496005E0
1.857072333E0,2.054905123E0,-2.568404093E0,-1.053196902E0,3.453774510E0
1.867090333E0,2.135438240E0,-2.233489322E0,-8.443682726E-1,3.203362110E0
1.877109333E0,1.982463968E0,-1.917128935E0,-5.746538293E-1,2.817050543E0
1.887127333E0,1.695527648E0,-1.596728853E0,-2.443120189E-1,2.341803877E0
1.897146333E0,1.349580642E0,-1.277917313E0,1.737101059E-1,1.866712557E0
1.907164333E0,9.000841248E-1,-8.857894367E-1,5.701409483E-1,1.385581127E0
1.917182333E0,3.471269739E-1,-4.223990580E-1,8.679770637E-1,1.025817861E0
1.927201333E0,-2.880537236E-1,4.523406029E-3,1.113734368E0,1.150391086E0
1.937219333E0,-9.604238820E-1,3.567664012E-1,1.320628738E0,1.671453428E0
1.947238333E0,-1.536914907E0,6.397111932E-1,1.421935258E0,2.189346413E0
1.957256333E0,-1.995000399E0,8.967760625E-1,1.412323605E0,2.603630516E0
1.967275333E0,-2.281999285E0,1.127388274E0,1.308442118E0,2.861912967E0
1.977293333E0,-2.479525831E0,1.273897206E0,1.156701024E0,3.018082122E0
1.987312333E0,-2.578617425E0,1.271562998E0,9.936559474E-1,3.041955362E0
1.997330333E0,-2.561524259E0,1.143172541E0,8.583573706E-1,2.933432693E0
2.007349167E0,-2.319951807E0,9.361255581E-1,7.140024801E-1,2.601597008E0
2.017367167E0,-1.908656904E0,6.528950565E-1,6.870471083E-1,2.131027185E0
2.027386167E0,-1.557680708E0,2.582722463E-1,7.915238419E-1,1.766234337E0
2.037404167E0,-1.240431837E0,-2.166967888E-1,1.028228487E0,1.625694455E0
2.047423167E0,-8.388947672E-1,-5.877118313E-1,1.208829975E0,1.584430351E0
2.057441167E0,-2.794103694E-1,-9.122582471E-1,1.378840255E0,1.676748554E0
2.067459167E0,3.736318177E-1,-1.236370799E0,1.589465149E0,2.048075426E0
2.077478167E0,1.111015998E0,-1.508557665E0,1.839585792E0,2.625676801E0
2.087496167E0,1.865583390E0,-1.675389545E0,2.124847763E0,3.286686709E0
2.097515167E0,2.535318208E0,-1.726328733E0,2.472843633E0,3.939924485E0
2.107533167E0,2.987603263E0,-1.633774326E0,2.904426620E0,4.475565416E0
2.117552167E0,3.020181609E0,-1.306084228E0,3.313684938E0,4.669888739E0
2.127570167E0,2.524034252E0,-7.750322818E-1,3.529829603E0,4.408074520E0
2.137589167E0,1.607445776E0,-2.706617653E-1,3.347529792E0,3.723317797E0
2.147607167E0,7.660402143E-1,-3.609888218E-2,2.896661518E0,2.996459358E0
2.157626167E0,4.526680470E-2,7.614178441E-2,2.366847646E0,2.368504683E0
2.167644167E0,-6.137658548E-1,1.746012946E-1,1.877757147E0,1.983221127E0
2.177662167E0,-1.063367622E0,2.450549807E-1,1.383846349E0,1.762337471E0
2.187681167E0,-1.275913326E0,3.255060900E-1,1.036894061E0,1.676024559E0
2.197699167E0,-1.368957145E0,3.826560814E-1,7.527715664E-1,1.608457141E0
2.207718167E0,-1.399060950E0,4.347579889E-1,5.431500547E-1,1.562497371E0
2.217736167E0,-1.332558228E0,4.819766307E-1,3.666765547E-1,1.463716024E0
2.227755167E0,-1.182977096E0,5.034096362E-1,2.089119521E-1,1.302497706E0
2.237773167E0,-1.016083528E0,4.854408136E-1,1.088482583E-1,1.131338350E0
2.247792167E0,-8.900321764E-1,4.544958866E-1,5.378736734E-2,1.000808107E0
2.257810167E0,-8.039827967E-1,4.448459342E-1,1.322289348E-2,9.189401980E-1
2.267829167E0,-8.371014261E-1,4.708043557E-1,7.912189096E-2,9.636678954E-1
2.277847167E0,-9.759119868E-1,4.494509089E-1,2.206128153E-1,1.096850190E0
2.287866167E0,-1.098801749E0,3.649235594E-1,3.457891309E-1,1.208347885E0
2.297884167E0,-1.121315868E0,2.073179828E-1,4.166594312E-1,1.214057290E0
2.307903167E0,-1.068529544E0,3.525109073E-2,4.390624532E-1,1.155756836E0
2.317921167E0,-9.543573958E-1,-9.861328284E-2,4.209002705E-1,1.047702084E0
2.327939167E0,-8.477924752E-1,-1.500231723E-1,3.787558790E-1,9.405929242E-1
2.337958167E0,-7.580704594E-1,-1.205885719E-1,3.019201031E-1,8.248443330E-1
2.347976167E0,-6.670515311E-1,-2.430742364E-2,2.018523163E-1,6.973470825E-1
2.357995167E0,-5.976287091E-1,1.369274649E-1,7.083433986E-2,6.171926022E-1
2.368013167E0,-5.273907852E-1,3.480309534E-1,-5.690276384E-2,6.344324309E-1
2.378032167E0,-4.739922577E-1,6.061176968E-1,-1.623115437E-1,7.863792723E-1
2.388050167E0,-4.710598791E-1,9.114823946E-1,-3.476079074E-1,1.083295353E0
2.398069167E0,-5.266154444E-1,1.173404911E0,-5.693644381E-1,1.406548533E0
2.408087167E0,-5.940244853E-1,1.378120025E0,-8.132190585E-1,1.706869980E0
2.418106167E0,-6.784290433E-1,1.476699110E0,-1.125153103E0,1.976581831E0
2.428124167E0,-6.760755390E-1,1.445197821E0,-1.525267545E0,2.207287014E0
2.438143167E0,-5.424403489E-1,1.348064167E0,-1.816826090E0,2.326451283E0
2.448161167E0,-3.388490707E-1,1.276567630E0,-1.944148041E0,2.350352146E0
2.458180167E0,-8.353449225E-2,1.279650282E0,-1.939771985E0,2.325338300E0
2.468198167E0,1.137762916E-1,1.385441908E0,-1.830799181E0,2.298743128E0
2.478217167E0,1.102363873E-1,1.540530825E0,-1.702444904E0,2.298631317E0
2.488235167E0,-1.616854531E-1,1.567787036E0,-1.751297075E0,2.356085699E0
2.498253167E0,-5.285450256E-1,1.212644699E0,-2.190816342E0,2.559207544E0
2.508272167E0,-5.128370655E-1,3.499769068E-1,-3.005658295E0,3.069115097E0
2.518290167E0,1.441075534E-1,-8.041313159E-1,-3.850784732E0,3.936487929E0
2.528309167E0,5.466801649E-1,-1.178932284E0,-4.200760762E0,4.397173128E0
2.538327167E0,3.508586669E-1,-5.593244764E-1,-4.052882924E0,4.106312905E0
2.548346167E0,-2.806055403E-1,4.297925699E-1,-3.641046861E0,3.677048187E0
2.558364167E0,-1.139772604E0,1.412719754E0,-3.252160242E0,3.724433505E0
2.568383167E0,-1.485043087E0,1.736561653E0,-3.899523321E0,4.519655018E0
2.578401167E0,-1.049984515E0,1.558122465E0,-4.130689192E0,4.537929737E0
2.588420167E0,6.526662111E-3,1.656840715E0,-2.546764133E0,3.038284269E0
2.598438167E0,1.560369843E0,1.840764006E0,-9.124394377E-1,2.579866644E0
2.608457167E0,3.267341076E0,1.659731871E0,-1.012248047E-1,3.666125209E0
2.618475167E0,4.776673497E0,1.055902774E0,1.533560944E-1,4.894390509E0
2.628494167E0,5.946692578E0,2.954919483E-1,2.393524106E-1,5.958838619E0
2.638512167E0,6.358168160E0,-4.659827417E-1,4.117936707E-1,6.388506578E0
2.648530167E0,5.551162353E0,-1.159584140E0,8.307772239E-1,5.731511986E0
2.658549167E0,3.889766657E0,-1.706423642E0,1.379231873E0,4.465920605E0
2.668567167E0,1.989282407E0,-2.200285908E0,1.775857866E0,3.457191596E0
2.678586167E0,2.045823812E-1,-2.552703150E0,1.971603935E0,3.231929671E0
2.688604167E0,-1.204458597E0,-2.740648448E0,2.004148660E0,3.602566624E0
2.698623167E0,-2.235723251E0,-2.919104593E0,1.915103606E0,4.145751066E0
2.708641167E0,-2.999376047E0,-3.162559556E0,1.730100187E0,4.689486782E0
2.718660167E0,-3.440349078E0,-3.378430280E0,1.525048713E0,5.057229134E0
2.728678167E0,-3.645305096E0,-3.553521937E0,1.325852641E0,5.260575313E0
2.738697167E0,-3.598508660E0,-3.716354029E0,1.032858897E0,5.275163442E0
2.748715167E0,-3.290718829E0,-3.826219118E0,6.726964331E-1,5.091296852E0
2.758734167E0,-2.787343728E0,-3.741191831E0,4.869539268E-1,4.690727609E0
2.768752167E0,-2.112372728E0,-3.369815577E0,4.888333681E-1,4.007085428E0
2.778771167E0,-1.372432730E0,-2.815354522E0,6.287211321E-1,3.194539552E0
2.788789167E0,-6.028724921E-1,-2.169218774E0,8.250269258E-1,2.397839602E0
2.798808167E0,2.107242966E-1,-1.498943088E0,1.052136290E0,1.843427754E0
2.808826167E0,8.938556707E-1,-8.631615892E-1,1.617259158E0,2.039498240E0
2.818845167E0,1.520856698E0,-1.807570057E-1,2.904459364E0,3.283528954E0
2.828863167E0,2.373704676E0,7.829840565E-1,5.111944656E0,5.690300176E0
2.838881167E0,3.577372729E0,2.237840820E0,7.048199834E0,8.214782290E0
2.848900167E0,4.549496305E0,3.308021033E0,6.483549421E0,8.583550132E0
2.858918167E0,4.195226957E0,3.352509865E0,4.314061675E0,6.888423604E0
2.868937167E0,3.041192994E0,2.807294135E0,2.511707736E0,4.841325329E0
2.878955167E0,1.796455852E0,2.252717598E0,1.378944190E0,3.194288228E0
2.888974167E0,6.328564292E-1,2.009013397E0,7.412820800E-1,2.232966908E0
2.898992167E0,-3.023162520E-1,1.959127877E0,4.016298942E-1,2.022593317E0
2.909011167E0,-1.139925801E0,1.816806648E0,3.966694088E-1,2.181184047E0
2.919029167E0,-1.739601620E0,1.553397184E0,5.929803188E-1,2.406425205E0
2.929048167E0,-2.133482346E0,1.054391854E0,9.045856038E-1,2.545930913E0
2.939066167E0,-2.394839437E0,4.611889020E-1,1.199860346E0,2.718016921E0
2.949085167E0,-2.615562472E0,-7.391012147E-2,1.525314177E0,3.028731268E0
2.959103167E0,-2.666539083E0,-5.704891500E-1,1.863247135E0,3.302662326E0
2.969122167E0,-2.654458736E0,-1.095279240E0,2.023203420E0,3.512711185E0
2.979140167E0,-2.518319768E0,-1.596488094E0,1.978094344E0,3.578207082E0
2.989159167E0,-2.358985480E0,-2.011782200E0,1.901420975E0,3.636960522E0
2.999177167E0,-2.216538536E0,-2.369968744E0,1.798135904E0,3.709863563E0
3.009199667E0,-2.017955983E0,-2.632187861E0,1.516005263E0,3.646756263E0
3.019217667E0,-1.864681165E0,-2.702654411E0,1.204840128E0,3.497572936E0
3.029236667E0,-1.802460943E0,-2.483452821E0,9.341830400E-1,3.207662906E0
3.039254667E0,-1.822033328E0,-2.087388160E0,7.256251368E-1,2.864179921E0
3.049272667E0,-1.838265783E0,-1.689449906E0,4.772693297E-1,2.541898520E0
3.059291667E0,-1.832347232E0,-1.370990368E0,1.999978718E-1,2.297196142E0
3.069309667E0,-1.806171001E0,-1.140009855E0,-1.143390861E-1,2.138913178E0
3.079328667E0,-1.695147579E0,-9.828182794E-1,-4.391618559E-1,2.008063799E0
3.089346667E0,-1.471278741E0,-7.799465011E-1,-8.929911599E-1,1.889553093E0
3.099365667E0,-1.106103752E0,-5.310201520E-1,-1.447949520E0,1.897895077E0
3.109383667E0,-5.963440758E-1,-3.074543466E-1,-1.802749503E0,1.923554055E0
3.119402667E0,6.583380103E-3,-6.180813923E-2,-1.970544712E0,1.971524803E0
3.129420667E0,5.854360950E-1,1.969576120E-1,-2.120399201E0,2.208533562E0
3.139439667E0,1.076987541E0,2.783843292E-1,-2.363768064E0,2.612431714E0
3.149457667E0,1.366787243E0,1.323580121E-1,-2.832652633E0,3.147943289E0
3.159476667E0,1.529532797E0,-1.927571916E-1,-3.276772635E0,3.621307059E0
3.169494667E0,1.612708270E0,-4.168988016E-1,-3.480692819E0,3.858737498E0
3.179513667E0,1.551129488E0,-3.799155280E-1,-3.463298814E0,3.813761552E0
3.189531667E0,1.344085429E0,-1.168211561E-1,-3.394618296E0,3.652895591E0
3.199550667E0,1.079655626E0,8.984604992E-2,-3.445123037E0,3.611454184E0
3.209568667E0,5.804589450E-1,-1.521077138E-1,-3.349217298E0,3.402546966E0
3.219587667E0,-1.537677383E-1,-9.926838478E-1,-2.909773314E0,3.078286289E0
3.229605667E0,-7.519706440E-1,-2.038408081E0,-2.398329055E0,3.236131890E0
3.239624667E0,-7.924830776E-1,-2.860888252E0,-2.101846863E0,3.637371476E0
3.249642667E0,-1.406044865E-1,-3.402409419E0,-2.046012970E0,3.972697893E0
3.259660667E0,8.138669300E-1,-3.624994208E0,-2.066446065E0,4.251254136E0
3.269679667E0,1.570871442E0,-3.575912095E0,-1.774515053E0,4.289951989E0
3.279697667E0,2.041818470E0,-3.371422392E0,-1.363998999E0,4.170851817E0
3.289716667E0,2.408955785E0,-3.050459369E0,-1.099826181E0,4.039552941E0
3.299734667E0,2.793917753E0,-2.686954929E0,-9.231633773E-1,3.984712514E0
3.309753667E0,3.104254630E0,-2.418489670E0,-6.591896573E-1,3.989989987E0
3.319771667E0,3.098816135E0,-2.242198165E0,-1.958633056E-1,3.829944710E0
3.329790667E0,2.611836627E0,-2.131756833E0,5.254246590E-1,3.412059324E0
3.339808667E0,1.661754715E0,-1.966386172E0,1.245634836E0,2.860019135E0
3.349827667E0,4.726912522E-1,-1.597340033E0,1.732823674E0,2.403665968E0
3.359845667E0,-6.328687084E-1,-1.144096255E0,2.047527837E0,2.429372200E0
3.369864667E0,-1.415375851E0,-5.974807745E-1,2.262115828E0,2.734490829E0
3.379882667E0,-1.980435569E0,1.287615359E-2,2.338481634E0,3.064439131E0
3.389901667E0,-2.415718675E0,6.688553971E-1,2.236552970E0,3.359350152E0
3.399919667E0,-2.659533534E0,1.291840264E0,1.993861800E0,3.566154058E0
3.409938667E0,-2.648560064E0,1.794287997E0,1.688330895E0,3.617291949E0
3.419956667E0,-2.278101531E0,2.065083956E0,1.328222079E0,3.349401771E0
3.429975667E0,-1.564036632E0,1.797544312E0,1.049586758E0,2.603652915E0
3.439993667E0,-7.667015344E-1,9.504587647E-1,9.789222796E-1,1.565085281E0
3.450012667E0,-8.032904863E-3,2.394697934E-2,1.186376667E0,1.186645516E0
3.460030667E0,7.775060195E-1,-8.323659854E-1,1.650187314E0,2.005110201E0
3.470049667E0,1.373300457E0,-1.582992720E0,2.239478917E0,3.067097311E0
3.480067667E0,1.645829823E0,-2.169628371E0,2.757039363E0,3.875217301E0
3.490086667E0,1.896275425E0,-2.672600599E0,3.138383074E0,4.537411461E0
3.500104667E0,2.014682711E0,-3.125182107E0,3.521769801E0,5.121383814E0
3.510123667E0,1.887661892E0,-3.501742211E0,3.874235868E0,5.552942417E0
3.520141667E0,1.473506531E0,-3.674577427E0,3.996723341E0,5.625614476E0
3.530160667E0,7.893168104E-1,-3.689763815E0,3.705509782E0,5.288495135E0
3.540178667E0,1.210280085E-1,-3.752224358E0,3.043161167E0,4.832666479E0
3.550197667E0,-4.104599208E-1,-3.892840246E0,2.226120368E0,4.503142727E0
3.560215667E0,-7.116160852E-1,-3.990236733E0,1.646030967E0,4.374677654E0
3.570234667E0,-8.214449215E-1,-3.960361554E0,1.218488406E0,4.224209913E0
3.580252667E0,-7.336548257E-1,-3.778904910E0,9.371251396E-1,3.961890363E0
3.590271667E0,-6.512605405E-1,-3.363780081E0,7.196916747E-1,3.501015971E0
3.600289667E0,-7.176258534E-1,-2.674402419E0,5.103601118E-1,2.815649589E0
3.610307667E0,-8.803947955E-1,-1.886742417E0,4.997628374E-1,2.141180711E0
3.620326667E0,-9.912428015E-1,-1.091964088E0,5.713408700E-1,1.581574611E0
3.630344667E0,-9.993639994E-1,-4.195786536E-1,5.944969404E-1,1.236204377E0
3.640363667E0,-1.000227048E0,1.290451258E-1,6.805141604E-1,1.216637298E0
3.650381667E0,-9.443943250E-1,5.782777874E-1,7.875765328E-1,1.358882863E0
3.660400667E0,-8.773027879E-1,9.897238411E-1,9.080633815E-1,1.604304388E0
3.670418667E0,-9.176497453E-1,1.391363383E0,1.045763994E0,1.967637022E0
3.680437667E0,-1.012500354E0,1.704365568E0,1.105925996E0,2.270042129E0
3.690455667E0,-1.134841062E0,1.829290892E0,1.147033092E0,2.439232321E0
3.700474667E0,-1.201525633E0,1.626883090E0,1.104507316E0,2.304419416E0
3.710492667E0,-1.212426013E0,1.255832526E0,1.018201389E0,2.020847901E0
3.720511667E0,-1.175420739E0,8.913825908E-1,9.122767389E-1,1.734481388E0
3.730529667E0,-1.222404286E0,5.954207274E-1,8.503791372E-1,1.603727770E0
3.740548667E0,-1.271581124E0,3.849202330E-1,8.294507830E-1,1.566228190E0
3.750566667E0,-1.254976201E0,2.291149227E-1,8.051044388E-1,1.508526457E0
3.760585667E0,-1.192728497E0,1.787099138E-1,7.669827855E-1,1.429265929E0
3.770603667E0,-1.105674566E0,2.301601125E-1,6.926063485E-1,1.324837151E0
3.780622667E0,-9.504333293E-1,3.416275214E-1,5.889982188E-1,1.169167130E0
3.790640667E0,-6.252608961E-1,4.161507599E-1,4.111361513E-1,8.562508850E-1
3.800659667E0,-1.569158792E-2,3.966329368E-1,9.305068955E-2,4.077037446E-1
3.810677667E0,6.409869826E-1,2.816684179E-1,-3.006041873E-1,7.619476930E-1
3.820696667E0,1.271750109E0,1.638456338E-1,-6.677819945E-1,1.445726988E0
3.830714667E0,1.826228705E0,1.650333860E-1,-8.694165020E-1,2.029342838E0
3.840733667E0,2.138575271E0,4.214286761E-1,-8.812582831E-1,2.351110903E0
3.850751667E0,2.025497721E0,1.010504992E0,-7.647222519E-1,2.389259609E0
3.860770667E0,1.440679677E0,1.743578312E0,-5.569225864E-1,2.329331670E0
3.870788667E0,5.034242177E-1,2.206258400E0,-2.900473318E-1,2.281477487E0
3.880807667E0,-4.409572434E-1,2.262693387E0,-1.656434333E-1,2.311203669E0
3.890825667E0,-1.090805097E0,1.926865718E0,-3.146304882E-1,2.236439044E0
3.900844667E0,-1.434178158E0,1.507107848E0,-7.380900849E-1,2.207491342E0
3.910862667E0,-1.509485033E0,1.212027379E0,-1.343597771E0,2.356440197E0
3.920881667E0,-1.460908704E0,1.080371033E0,-2.106155676E0,2.781608805E0
3.930899667E0,-1.445141103E0,1.121524175E0,-3.134626530E0,3.629343297E0
3.940918667E0,-1.508684549E0,1.252235319E0,-4.272344130E0,4.700760229E0
3.950936667E0,-1.480614991E0,1.232171621E0,-4.919297612E0,5.282987474E0
3.960955667E0,-7.804647106E-1,9.325925973E-1,-4.939415542E0,5.086912621E0
3.970973667E0,6.482807994E-1,3.435730362E-1,-5.079671534E0,5.132384760E0
3.980992667E0,2.228652213E0,-2.410794954E-1,-4.969434562E0,5.451631855E0
3.991010667E0,3.759883041E0,-4.059061458E-1,-3.775030253E0,5.343438377E0
4.001029667E0,5.268739498E0,-5.341009768E-1,-2.371651572E0,5.802552105E0
4.011043667E0,6.408215064E0,-8.685528682E-1,-1.232723599E0,6.583252377E0
4.021062667E0,6.762714207E0,-1.344458773E0,-1.771545544E-1,6.897336919E0
4.031080667E0,5.919918178E0,-1.724441691E0,8.115841770E-1,6.219147791E0
4.041099667E0,3.951662943E0,-1.932581664E0,1.401727281E0,4.616855128E0
4.051117667E0,1.881955009E0,-2.118476929E0,1.532679183E0,3.221615221E0
4.061136667E0,4.419857687E-1,-2.438298283E0,1.314414318E0,2.805055246E0
4.071154667E0,-4.403865552E-1,-2.831496346E0,9.859586728E-1,3.030416865E0
4.081173667E0,-1.057169573E0,-3.113834124E0,7.316375363E-1,3.368807495E0
4.091191667E0,-1.618109928E0,-3.080573699E0,5.750797990E-1,3.526886847E0
4.101210667E0,-2.083631324E0,-2.804589213E0,5.309394604E-1,3.533997292E0
4.111228667E0,-2.435259485E0,-2.394386863E0,5.912312704E-1,3.465996483E0
4.121247667E0,-2.835830594E0,-1.862784036E0,7.365149912E-1,3.471938055E0
4.131265667E0,-3.133535732E0,-1.402696895E0,8.714696056E-1,3.542042354E0
4.141283667E0,-3.092918049E0,-1.141999297E0,9.589024365E-1,3.433627576E0
4.151302667E0,-2.779940568E0,-1.024663074E0,9.897751504E-1,3.123725152E0
4.161320667E0,-2.201752682E0,-9.909005933E-1,8.876169840E-1,2.572442957E0
4.171339667E0,-1.539624506E0,-9.930106341E-1,8.266091824E-1,2.009924496E0
4.181357667E0,-9.607963496E-1,-1.002922103E0,1.131160240E0,1.791230264E0
4.191376667E0,-4.880191433E-1,-1.023183290E0,1.721108485E0,2.060893289E0
4.201394667E0,-1.058883977E-1,-1.065373728E0,2.381706152E0,2.611275116E0
4.211413667E0,2.137636793E-1,-1.125152153E0,2.943080224E0,3.158066415E0
4.221431667E0,3.729798532E-1,-1.171539357E0,3.402439824E0,3.617763839E0
4.231450667E0,5.041486877E-1,-1.221717604E0,3.605722954E0,3.840312204E0
4.241468667E0,6.594934201E-1,-1.333453583E0,3.624804758E0,3.918193405E0
4.251487667E0,7.691819233E-1,-1.500128319E0,3.582406597E0,3.959250286E0
4.261505667E0,7.944430643E-1,-1.593517123E0,3.466296097E0,3.896876344E0
4.271524667E0,7.087024176E-1,-1.606942038E0,3.109432340E0,3.571147057E0
4.281542667E0,4.692185909E-1,-1.499386599E0,2.606591674E0,3.043459613E0
4.291561667E0,4.628831327E-2,-1.292771726E0,2.137545430E0,2.498499912E0
4.301579667E0,-3.808373415E-1,-9.717230415E-1,1.744147246E0,2.032567924E0
4.311598667E0,-6.605330551E-1,-6.097839741E-1,1.467699222E0,1.721127949E0
4.321616667E0,-9.061962193E-1,-2.941276650E-1,1.297672716E0,1.609862463E0
4.331635667E0,-1.060003134E0,8.238361403E-3,1.134750431E0,1.552846758E0
4.341653667E0,-1.160361235E0,2.169001257E-1,1.000988502E0,1.547727961E0
4.351672667E0,-1.199648092E0,3.032535607E-1,9.053469113E-1,1.533222520E0
4.361690667E0,-1.129933494E0,3.167388479E-1,8.463973296E-1,1.446879967E0
4.371709667E0,-9.350949132E-1,3.304313459E-1,8.856543660E-1,1.329650716E0
4.381727667E0,-6.758340490E-1,2.982120182E-1,1.016131621E0,1.256266509E0
4.391746667E0,-4.308134937E-1,1.402157928E-1,1.094867888E0,1.184903552E0
4.401764667E0,-2.241582745E-1,-1.243406023E-1,9.539045289E-1,9.877455987E-1
4.411783667E0,-1.446022278E-1,-4.123162656E-1,5.361069372E-1,6.916105517E-1
4.421801667E0,-1.982007301E-1,-7.207470971E-1,1.620585054E-2,7.476780972E-1
4.431820667E0,-3.827920657E-1,-1.046469753E0,-5.891014221E-1,1.260424213E0
4.441838667E0,-5.925106412E-1,-1.380313900E0,-1.332721365E0,2.008103971E0
4.451857667E0,-7.380577791E-1,-1.723291543E0,-1.951150082E0,2.705817745E0
4.461875667E0,-9.684550327E-1,-1.837978100E0,-2.538910738E0,3.280569521E0
4.471894667E0,-1.255473799E0,-1.729683719E0,-2.841526075E0,3.555599902E0
4.481912667E0,-1.557048624E0,-1.561798171E0,-2.975531101E0,3.703700755E0
4.491931667E0,-1.753384677E0,-1.399302148E0,-3.041416065E0,3.779234845E0
4.501949667E0,-1.799709828E0,-1.239186965E0,-3.001010051E0,3.712223205E0
4.511968667E0,-1.716236731E0,-1.061035606E0,-2.883181931E0,3.519091236E0
4.521986667E0,-1.558414534E0,-8.560882855E-1,-2.696237676E0,3.229743119E0
4.532005667E0,-1.363953098E0,-6.489323254E-1,-2.536840239E0,2.952463313E0
4.542023667E0,-1.173588222E0,-4.555760135E-1,-2.363651558E0,2.678004389E0
4.552042667E0,-9.895763451E-1,-2.479084951E-1,-2.113139298E0,2.346503283E0
4.562060667E0,-8.108117598E-1,-1.647659124E-1,-1.856690067E0,2.032698089E0
4.572079667E0,-6.481369579E-1,-3.463202774E-1,-1.617419664E0,1.776531908E0
4.582097667E0,-5.017694557E-1,-7.296900480E-1,-1.450176432E0,1.699185640E0
4.592116667E0,-2.326197803E-1,-1.163746554E0,-1.458106719E0,1.880024789E0
4.602134667E0,1.589974880E-1,-1.462692251E0,-1.612845972E0,2.183121836E0
4.612153667E0,3.814472061E-1,-1.446657870E0,-1.845347054E0,2.375631856E0
4.622171667E0,5.167096764E-1,-1.215503037E0,-2.267945209E0,2.624502238E0
4.632190667E0,7.272293204E-1,-9.391012792E-1,-2.525358646E0,2.790736460E0
4.642208667E0,8.797808379E-1,-8.038222175E-1,-2.229218223E0,2.527757577E0
4.652227667E0,1.135736271E0,-8.363709627E-1,-2.113350090E0,2.540799455E0
4.662245667E0,1.587551209E0,-9.958403941E-1,-2.492064015E0,3.118076328E0
4.672264667E0,1.978663278E0,-1.443011401E0,-2.907436182E0,3.801391248E0
4.682282667E0,2.112980838E0,-1.882079555E0,-2.819145857E0,3.994307804E0
4.692301667E0,2.030343894E0,-2.053569181E0,-2.282930454E0,3.681197382E0
4.702319667E0,2.017143220E0,-2.081254139E0,-1.660131528E0,3.340138058E0
4.712338667E0,2.213482781E0,-2.147856556E0,-1.026674005E0,3.250669673E0
4.722356667E0,2.098472727E0,-2.113071324E0,-1.802556252E-1,2.983479562E0
4.732375667E0,1.601090437E0,-1.859856919E0,6.528524449E-1,2.539443770E0
4.742393667E0,1.037417679E0,-1.509734417E0,1.209567017E0,2.195127745E0
4.752412667E0,4.983652067E-1,-1.091050972E0,1.532294144E0,1.945940762E0
4.762430667E0,1.408512390E-1,-7.642920430E-1,1.726831594E0,1.893654866E0
4.772449667E0,-6.696699142E-2,-4.848039056E-1,1.802065963E0,1.867340660E0
4.782467667E0,-3.098498046E-1,-1.516143550E-1,1.828919886E0,1.861166775E0
4.792486667E0,-4.332798493E-1,2.633784004E-1,1.625560158E0,1.702805167E0
4.802504667E0,-4.691507632E-1,6.944156963E-1,1.497984437E0,1.716471081E0
4.812523667E0,-4.124286783E-1,8.938310393E-1,1.594702939E0,1.874062113E0
4.822541667E0,-2.546936041E-1,9.535102073E-1,1.918795976E0,2.157736904E0
4.832560667E0,-1.660001135E-1,1.024980797E0,2.614696792E0,2.813322055E0
4.842578667E0,-2.873859715E-1,9.207162445E-1,3.054587796E0,3.203250802E0
4.852597667E0,-3.983854204E-1,5.471096064E-1,3.130347245E0,3.202672906E0
4.862615667E0,-3.110028756E-1,-2.089126099E-2,3.030690518E0,3.046677575E0
4.872634667E0,1.053960621E-1,-7.291767356E-1,2.929053631E0,3.020291743E0
4.882652667E0,7.217101336E-1,-1.311262084E0,2.756454642E0,3.136608991E0
4.892671667E0,1.203365752E0,-1.677105995E0,2.673268936E0,3.377445848E0
4.902689667E0,1.432649111E0,-1.807303607E0,2.667524631E0,3.526261117E0
4.912708667E0,1.453374567E0,-1.836146460E0,2.677923904E0,3.557387790E0
4.922726667E0,1.370285633E0,-1.866701524E0,2.616359155E0,3.493936537E0
4.932745667E0,1.171134730E0,-1.877291708E0,2.557929976E0,3.382127507E0
4.942763667E0,8.396701080E-1,-1.855161167E0,2.509368850E0,3.231656057E0
4.952782667E0,4.321770644E-1,-1.791701481E0,2.388950121E0,3.017292478E0
4.962800667E0,1.236206639E-1,-1.715710043E0,2.223780605E0,2.811430810E0
4.972819667E0,-1.872032869E-1,-1.627352914E0,2.060222873E0,2.632079191E0
4.982837667E0,-4.949358147E-1,-1.546793485E0,1.869717371E0,2.476565080E0
4.992856667E0,-7.767254162E-1,-1.470539069E0,1.662658402E0,2.351642083E0
5.002874667E0,-9.904306233E-1,-1.364490019E0,1.424756539E0,2.207423165E0
5.012893792E0,-1.217417196E0,-1.215297069E0,1.204400417E0,2.099912369E0
5.022911792E0,-1.386834422E0,-1.052608453E0,1.113109885E0,2.066472329E0
5.032930792E0,-1.459655646E0,-7.931147962E-1,1.042853543E0,1.961420199E0
5.042948792E0,-1.410387592E0,-4.840482992E-1,9.096016377E-1,1.746674284E0
5.052967792E0,-1.250090268E0,-2.112563201E-1,8.312474862E-1,1.516023513E0
5.062985792E0,-1.089281312E0,1.175728887E-3,7.906955838E-1,1.346006934E0
5.073004792E0,-9.200552899E-1,2.196876396E-1,7.461129034E-1,1.204760914E0
5.083022792E0,-8.252222228E-1,4.647054175E-1,6.596279061E-1,1.154145492E0
5.093041792E0,-8.646394730E-1,7.003258426E-1,5.619048527E-1,1.246513043E0
5.103059792E0,-8.817858481E-1,7.597056332E-1,4.002723169E-1,1.230819588E0
5.113078792E0,-7.835532099E-1,5.734936687E-1,1.033556762E-1,9.764901518E-1
5.123096792E0,-6.649506265E-1,3.010546421E-1,-1.870895585E-1,7.535222201E-1
5.133115792E0,-5.586184251E-1,5.705968849E-2,-4.183434293E-1,7.002296607E-1
5.143133792E0,-4.460267794E-1,-1.335698475E-1,-5.608666795E-1,7.289391088E-1
5.153152792E0,-3.665338826E-1,-2.752853780E-1,-6.479548171E-1,7.937093747E-1
5.163170792E0,-3.697954595E-1,-3.595369582E-1,-7.050964397E-1,8.735997341E-1
5.173189792E0,-4.219877064E-1,-3.843825084E-1,-7.903786647E-1,9.749471631E-1
5.183207792E0,-3.103807318E-1,-3.925879792E-1,-8.903973350E-1,1.021405372E0
5.193226792E0,-6.058650970E-2,-3.953025856E-1,-1.021711473E0,1.097191502E0
5.203244792E0,4.083736342E-1,-3.967526220E-1,-1.279889725E0,1.400820965E0
5.213263792E0,1.123079388E0,-2.835683610E-1,-1.641593808E0,2.009116362E0
5.223281792E0,1.719990644E0,4.806403957E-2,-1.698300105E0,2.417623050E0
5.233300792E0,1.819351795E0,5.271221057E-1,-1.148280888E0,2.215050262E0
5.243318792E0,1.577999198E0,8.979677251E-1,-3.488118491E-1,1.848809674E0
5.253337792E0,1.274902343E0,1.084532423E0,2.010544637E-1,1.685826046E0
5.263356792E0,1.064954556E0,1.059520154E0,4.244096231E-1,1.561036416E0
5.273374792E0,9.003273690E-1,8.116262770E-1,4.075439143E-1,1.278834871E0
5.283392792E0,8.677922916E-1,5.092752340E-1,1.404360867E-1,1.015946367E0
5.293411792E0,1.032516543E0,4.158206481E-1,-2.604338157E-1,1.143163590E0
5.303430792E0,1.117047985E0,4.552330012E-1,-4.301121202E-1,1.280636452E0
5.313448792E0,1.100685722E0,4.400865199E-1,-3.606723413E-1,1.239060023E0
5.323466792E0,1.064118404E0,3.453046160E-1,-2.775249347E-1,1.152650574E0
5.333485792E0,9.029293799E-1,6.559837751E-2,-2.001265106E-1,9.271651592E-1
5.343504792E0,6.682975727E-1,-4.772910375E-1,-5.628749058E-2,8.231625974E-1
5.353522792E0,5.239444363E-1,-1.223135188E0,4.996562719E-2,1.331568258E0
5.363541792E0,4.985692745E-1,-2.182885763E0,8.171030715E-2,2.240588796E0
5.373559792E0,5.136457354E-1,-3.386086624E0,1.830355377E-1,3.429710859E0
5.383578792E0,4.243757093E-1,-4.692111357E0,3.792846134E-1,4.726506167E0
5.393596792E0,2.728965712E-1,-5.879794584E0,6.387742500E-1,5.920683189E0
5.403615792E0,1.662351716E-1,-6.760486418E0,1.032599427E0,6.840911658E0
5.413633792E0,1.189019608E-1,-7.148384857E0,1.684102188E0,7.345048939E0
5.423651792E0,1.245942253E-1,-7.001230320E0,2.291820999E0,7.367848614E0
5.433670792E0,6.655710161E-2,-6.365447944E0,2.700627766E0,6.914965488E0
5.443689792E0,-7.593369663E-2,-5.291184036E0,2.659796659E0,5.922576525E0
5.453707792E0,-2.006366801E-1,-4.060195744E0,2.109900087E0,4.580078922E0
5.463726792E0,-3.360359752E-1,-3.069372481E0,1.352347544E0,3.370876960E0
5.473744792E0,-3.398904598E-1,-2.505464664E0,6.942295356E-1,2.621990342E0
5.483763792E0,-1.800913185E-1,-2.275339014E0,3.076198228E-1,2.303091502E0
5.493781792E0,4.159182966E-2,-2.223820074E0,1.389511862E-1,2.228545048E0
5.503800792E0,3.647650999E-1,-2.234189233E0,9.760435492E-2,2.265873280E0
5.513818792E0,7.523390186E-1,-2.089048477E0,7.146247700E-2,2.221541002E0
5.523837792E0,1.026024964E0,-1.780946405E0,6.458352014E-2,2.056372621E0
5.533855792E0,1.042263851E0,-1.345682011E0,2.393615469E-1,1.718856585E0
5.543874792E0,8.153415978E-1,-8.999712735E-1,5.372737491E-1,1.327928197E0
5.553892792E0,5.315499097E-1,-6.035150280E-1,1.117475417E0,1.376781392E0
5.563911792E0,2.641017741E-1,-3.288128366E-1,2.122698326E0,2.164189412E0
5.573929792E0,1.161151779E-1,-6.691897117E-2,3.389446142E0,3.392094638E0
5.583948792E0,1.611901939E-2,1.091737654E-1,4.498823165E0,4.500176508E0
5.593966792E0,-7.038761258E-2,8.352842577E-2,5.013271723E0,5.014461564E0
5.603985792E0,-1.064146471E-1,-1.694347680E-2,4.545081657E0,4.546358810E0
5.614003792E0,-1.270927405E-1,-2.064498357E-2,3.328117620E0,3.330607403E0
5.624022792E0,-2.412251276E-1,7.735493548E-2,1.968349375E0,1.984583737E0
5.634040792E0,-4.326354861E-1,1.103799364E-1,1.010477217E0,1.104726845E0
5.644059792E0,-7.033206403E-1,4.375508018E-2,5.004508355E-1,8.643063513E-1
5.654077792E0,-9.028983897E-1,-5.435330473E-2,2.367022697E-1,9.349907745E-1
5.664096792E0,-8.650774294E-1,-1.436072510E-1,1.090587215E-1,8.836717751E-1
5.674114792E0,-6.942118478E-1,-2.756862777E-1,5.549007654E-2,7.490074512E-1
5.684133792E0,-5.327193528E-1,-4.590443625E-1,9.048737984E-2,7.090131181E-1
5.694151792E0,-4.429850578E-1,-7.186032155E-1,1.992719400E-1,8.673728431E-1
5.704170792E0,-3.916260391E-1,-9.709390761E-1,2.562138071E-1,1.077840043E0
5.714188792E0,-3.598680568E-1,-1.154590033E0,2.671790541E-1,1.238534541E0
5.724207792E0,-3.660637665E-1,-1.292274128E0,2.349504805E-1,1.363516348E0
5.734225792E0,-3.923347217E-1,-1.378361807E0,1.661216259E-1,1.442707246E0
5.744244792E0,-4.531960505E-1,-1.428547143E0,1.585325978E-1,1.507072057E0
5.754262792E0,-5.587792236E-1,-1.430345747E0,2.483335511E-1,1.555568298E0
5.764281792E0,-6.987492871E-1,-1.387686362E0,3.790954560E-1,1.599261508E0
5.774299792E0,-7.936150986E-1,-1.266402538E0,4.978564990E-1,1.575265503E0
5.784318792E0,-8.558552009E-1,-1.024125057E0,5.290022413E-1,1.435675322E0
5.794336792E0,-8.555879831E-1,-7.101887798E-1,5.134089231E-1,1.224739818E0
5.804355792E0,-7.662928140E-1,-3.440058763E-1,4.632924012E-1,9.592625130E-1
5.814373792E0,-6.702055192E-1,-3.870856762E-4,4.180642247E-1,7.899071362E-1
5.824392792E0,-6.353233695E-1,2.414552155E-1,3.578180230E-1,7.680951390E-1
5.834410792E0,-5.405610538E-1,3.131644450E-1,2.020552329E-1,6.565855158E-1
5.844429792E0,-4.357982451E-1,2.121560604E-1,7.838835776E-2,4.909939297E-1
5.854447792E0,-4.416320121E-1,1.982498467E-3,1.083898365E-1,4.547429176E-1
5.864466792E0,-4.049226075E-1,-3.292488196E-1,7.301067352E-2,5.269702665E-1
5.874484792E0,-3.025735295E-1,-7.194645104E-1,-4.859737873E-2,7.820112708E-1
5.884503792E0,-2.965497279E-1,-1.032364150E0,-1.782347910E-1,1.088799853E0
5.894521792E0,-3.004083055E-1,-1.233142113E0,-3.859980941E-1,1.326604368E0
5.904540792E0,-1.926558155E-1,-1.246043410E0,-7.315311170E-1,1.457696202E0
5.914558792E0,1.951291877E-1,-9.294012601E-1,-1.305500676E0,1.614371121E0
5.924577792E0,8.662819558E-1,-3.719731088E-1,-2.217487393E0,2.409576469E0
5.934595792E0,1.577168893E0,1.322898189E-1,-3.030630584E0,3.419017995E0
5.944614792E0,2.184605137E0,3.972957918E-1,-3.679573288E0,4.297627617E0
5.954632792E0,2.522602853E0,3.576131511E-1,-4.123235453E0,4.846904468E0
5.964651792E0,2.452284822E0,1.114464685E-1,-4.227170881E0,4.888260920E0
5.974669792E0,1.849080793E0,-2.010168222E-1,-3.843199140E0,4.269623774E0
5.984688792E0,9.481359583E-1,-4.898745380E-1,-3.084056301E0,3.263486192E0
5.994706792E0,5.755355895E-2,-7.296461208E-1,-2.228606458E0,2.345715801E0
6.004725792E0,-6.650237167E-1,-9.184993458E-1,-1.387976968E0,1.792310703E0
6.014743792E0,-1.145738518E0,-1.052688121E0,-6.335515901E-1,1.679957336E0
6.024762792E0,-1.325418193E0,-1.207734061E0,6.104639322E-3,1.793151475E0
6.034780792E0,-1.255001929E0,-1.361912127E0,4.515874815E-1,1.906243882E0
6.044799792E0,-1.019284294E0,-1.584056329E0,6.367840040E-1,1.988383462E0
6.054817792E0,-5.833930779E-1,-1.801998428E0,5.683142781E-1,1.977505231E0
6.064836792E0,-5.933169723E-2,-1.925289894E0,3.926545644E-1,1.965817650E0
6.074854792E0,3.921938038E-1,-2.001200786E0,2.713694246E-1,2.057246201E0
6.084873792E0,6.666878343E-1,-2.015968806E0,2.677768222E-1,2.140165256E0
6.094891792E0,6.753504843E-1,-1.866466027E0,4.549320889E-1,2.036358739E0
6.104910792E0,4.134899479E-1,-1.511973900E0,8.011257009E-1,1.760352636E0
6.114928792E0,-1.791119099E-2,-9.879765469E-1,1.148620026E0,1.515172080E0
6.124947792E0,-4.930945265E-1,-2.826666838E-1,1.399913474E0,1.510893908E0
6.134965792E0,-8.601850641E-1,4.709862772E-1,1.526482451E0,1.814358038E0
6.144984792E0,-9.752337098E-1,1.237471392E0,1.496681531E0,2.173124902E0
6.155002792E0,-8.372476065E-1,1.962856062E0,1.406774890E0,2.555934871E0
6.165021792E0,-4.961514509E-1,2.593585420E0,1.283189017E0,2.935885837E0
6.175039792E0,-2.445188642E-2,3.092278071E0,1.216498306E0,3.323048253E0
6.185058792E0,4.302322805E-1,3.371294923E0,1.271661962E0,3.628753700E0
6.195077792E0,8.108293015E-1,3.423478399E0,1.414667315E0,3.791956238E0
6.205095792E0,1.062133275E0,3.256035485E0,1.644363341E0,3.799187409E0
6.215114792E0,1.189327757E0,2.897288339E0,1.981994583E0,3.706357074E0
6.225132792E0,1.237272002E0,2.444665608E0,2.351579397E0,3.610700431E0
6.235151792E0,1.136816252E0,2.018807191E0,2.631970929E0,3.506451859E0
6.245169792E0,9.384921455E-1,1.598773186E0,2.723707895E0,3.294757640E0
6.255188792E0,6.248346341E-1,1.204637960E0,2.606965019E0,2.939019827E0
6.265206792E0,2.563559675E-1,8.674101761E-1,2.305248399E0,2.476345892E0
6.275225792E0,-7.996125877E-2,5.472539230E-1,1.971254417E0,2.047370176E0
6.285243792E0,-3.835831940E-1,3.057626009E-1,1.667943993E0,1.738581030E0
6.295262792E0,-5.503241497E-1,8.662971586E-2,1.407126600E0,1.513395733E0
6.305280792E0,-5.798186749E-1,-8.870518506E-2,1.161991585E0,1.301646169E0
6.315299792E0,-6.323962533E-1,-1.148907709E-1,1.003846475E0,1.191986852E0
6.325317792E0,-6.633595991E-1,-1.242657579E-1,9.951637982E-1,1.202430423E0
6.335336792E0,-6.349222505E-1,-1.599459064E-1,1.027148799E0,1.218090149E0
6.345354792E0,-6.698301280E-1,-1.942323710E-1,1.078740244E0,1.284554058E0
6.355373792E0,-6.507530022E-1,-2.910663553E-1,1.033369213E0,1.255408708E0
6.365391792E0,-5.223686117E-1,-3.651957473E-1,8.618399723E-1,1.071916526E0
6.375410792E0,-2.831444013E-1,-4.585497612E-1,5.411805663E-1,7.637506404E-1
6.385428792E0,-1.187820929E-1,-5.896539840E-1,1.489426160E-1,6.196651590E-1
6.395447792E0,-6.060931385E-2,-5.881518709E-1,-2.904379258E-1,6.587490424E-1
6.405465792E0,1.428650200E-1,-5.551260659E-1,-8.117324039E-1,9.937227272E-1
6.415484792E0,3.696533722E-1,-6.054323665E-1,-1.409461393E0,1.577901576E0
6.425502792E0,7.124604231E-1,-5.872480009E-1,-2.245279355E0,2.427702505E0
6.435521792E0,7.782714200E-1,-1.077016924E-1,-2.990963657E0,3.092437495E0
6.445539792E0,4.433376449E-1,8.558190943E-1,-4.042213217E0,4.155533935E0
6.455558792E0,-3.855121905E-1,1.869417117E0,-5.201403548E0,5.540572071E0
6.465576792E0,-1.514978492E0,2.221810970E0,-4.436770466E0,5.188114878E0
6.475595792E0,-2.249622667E0,2.135237972E0,-2.563768713E0,4.024046888E0
6.485613792E0,-2.380400323E0,2.089606594E0,-8.470510483E-1,3.278758438E0
6.495632792E0,-2.078311527E0,2.074589628E0,3.136776844E-1,2.953251534E0
6.505650792E0,-1.578069949E0,2.094623213E0,9.688470885E-1,2.795785372E0
6.515669792E0,-1.086736604E0,2.112202574E0,1.234039661E0,2.676798469E0
6.525687792E0,-7.403931570E-1,1.996947814E0,1.163061772E0,2.426663405E0
6.535706792E0,-5.978362852E-1,1.737408184E0,7.636957732E-1,1.989780554E0
6.545724792E0,-6.116345447E-1,1.462000380E0,2.781090716E-1,1.609001735E0
6.555743792E0,-6.953345132E-1,1.216007579E0,-1.223342764E-1,1.406104616E0
6.565761792E0,-8.120303196E-1,9.974167304E-1,-3.201467514E-1,1.325415903E0
6.575780792E0,-8.651376557E-1,8.175823970E-1,-2.941245952E-1,1.226137601E0
6.585798792E0,-8.364839602E-1,6.765499675E-1,-1.419244954E-1,1.085157978E0
6.595817792E0,-7.288899297E-1,5.747609065E-1,4.541327745E-2,9.293508460E-1
6.605835792E0,-5.078248322E-1,5.168794284E-1,9.391593128E-2,7.306644961E-1
6.615854792E0,-2.219269770E-1,4.909923794E-1,6.990580201E-2,5.433340786E-1
6.625872792E0,3.523298264E-2,5.083960321E-1,-1.502851367E-2,5.098369786E-1
6.635891792E0,2.201418221E-1,6.023831532E-1,-1.350592795E-1,6.554150548E-1
6.645909792E0,3.155555177E-1,7.410438059E-1,-2.449182290E-1,8.418468661E-1
6.655928792E0,3.095439953E-1,9.114193178E-1,-3.853385282E-1,1.036816493E0
6.665947792E0,1.912840587E-1,1.095722020E0,-5.641121766E-1,1.247164337E0
6.675965792E0,-3.626735508E-2,1.283419982E0,-7.595919049E-1,1.491798255E0
6.685984792E0,-2.897768980E-1,1.310830121E0,-9.617927152E-1,1.651451326E0
6.696002792E0,-4.667551589E-1,1.245509997E0,-1.221662275E0,1.805993977E0
6.706021792E0,-5.903495103E-1,1.133641068E0,-1.541552626E0,2.002508205E0
6.716039792E0,-5.444120300E-1,9.890348929E-1,-1.862567104E0,2.178010719E0
6.726058792E0,-1.225599790E-1,8.611828914E-1,-2.313984139E0,2.472079998E0
6.736076792E0,8.518709081E-1,8.106598784E-1,-2.727764109E0,2.970446181E0
6.746095792E0,2.051141270E0,9.098483902E-1,-2.941497967E0,3.699650645E0
6.756113792E0,2.955239509E0,1.139504802E0,-2.844030437E0,4.256808767E0
6.766132792E0,3.401584377E0,1.368596080E0,-2.340129379E0,4.349716889E0
6.776150792E0,3.377723059E0,1.397809354E0,-1.558333257E0,3.973825184E0
6.786169792E0,3.035722339E0,1.159269999E0,-8.277254158E-1,3.353303806E0
6.796187792E0,2.548542856E0,7.486028671E-1,-4.868014607E-1,2.700454148E0
6.806206792E0,1.738236880E0,4.037427491E-1,-3.879402468E-1,1.826190925E0
6.816224792E0,7.581868190E-1,1.097400683E-1,-3.758286166E-1,8.533096062E-1
6.826243792E0,-4.921776831E-2,-1.812492865E-1,-3.744615376E-1,4.189213956E-1
6.836261792E0,-6.396532327E-1,-4.297988922E-1,-2.951908350E-1,8.252399499E-1
6.846280792E0,-1.015618089E0,-5.970817751E-1,-1.633141950E-1,1.189394079E0
6.856298792E0,-1.230414387E0,-6.912250169E-1,3.074173629E-2,1.411614906E0
6.866317792E0,-1.232204220E0,-7.421838668E-1,2.588843036E-1,1.461569435E0
6.876335792E0,-1.141534955E0,-7.121451120E-1,5.797321361E-1,1.465039953E0
6.886354792E0,-1.165198052E0,-5.711687061E-1,1.044889836E0,1.666047706E0
6.896372792E0,-1.256701714E0,-4.003405832E-1,1.500582940E0,1.997829057E0
6.906391792E0,-1.434053028E0,-3.311232177E-1,1.808789677E0,2.331924262E0
6.916409792E0,-1.558888158E0,-3.512927496E-1,1.923552394E0,2.500718436E0
6.926428792E0,-1.548723943E0,-4.140865101E-1,1.874238439E0,2.466329908E0
6.936446792E0,-1.449283270E0,-4.865218907E-1,1.705143979E0,2.290118236E0
6.946465792E0,-1.130837474E0,-5.304965338E-1,1.463953350E0,1.924416632E0
6.956483792E0,-5.250916600E-1,-5.576365314E-1,1.191783880E0,1.416696357E0
6.966502792E0,1.818437290E-1,-5.122546828E-1,1.072519684E0,1.202401960E0
6.976520792E0,8.259794372E-1,-4.252603930E-1,1.134308381E0,1.466200510E0
6.986539792E0,1.414989350E0,-3.541275528E-1,1.291257297E0,1.948062266E0
6.996557792E0,1.887525067E0,-2.791846851E-1,1.498612428E0,2.426218081E0
7.006577292E0,2.149832915E0,-1.402787966E-1,1.746746918E0,2.773550883E0
7.016595292E0,2.064730784E0,1.021559555E-1,2.013949763E0,2.886094714E0
7.026614292E0,1.711884064E0,2.689260011E-1,2.063661913E0,2.694729807E0
7.036632292E0,1.326497004E0,3.519348469E-1,1.866149985E0,2.316455958E0
7.046651292E0,1.011817984E0,5.438178067E-1,1.655443523E0,2.014945830E0
7.056669292E0,8.203351200E-1,7.866007787E-1,1.242754643E0,1.684081232E0
7.066688292E0,6.358952272E-1,1.138381552E0,1.300643248E0,1.841724234E0
7.076706292E0,6.782062644E-1,1.435635284E0,1.222563038E0,2.003914367E0
7.086725292E0,5.610631460E-1,1.308517985E0,1.071993142E0,1.782184185E0
7.096743292E0,4.310438740E-1,1.015966145E0,5.307003093E-1,1.224593340E0
7.106762292E0,2.069733077E-1,6.230166616E-1,-2.250131375E-1,6.939874803E-1
7.116781292E0,-3.940847933E-2,4.094292759E-1,-7.266448912E-1,8.349839269E-1
7.126799292E0,-3.143679482E-1,4.622783844E-1,-8.035974652E-1,9.789266559E-1
7.136818292E0,-6.031718695E-1,6.647953829E-1,-5.447470754E-1,1.050008848E0
7.146836292E0,-9.718546039E-1,7.178939483E-1,-1.770911121E-1,1.221161068E0
7.156854292E0,-1.297860265E0,4.904626948E-1,2.086309934E-1,1.403040204E0
7.166873292E0,-1.497362586E0,1.868221946E-1,6.331844580E-1,1.636435090E0
7.176892292E0,-1.586734353E0,-1.369201559E-1,8.655089539E-1,1.812616558E0
7.186910292E0,-1.669941986E0,-4.203534096E-1,8.806286842E-1,1.934143248E0
7.196929292E0,-1.750921830E0,-6.366812392E-1,7.553924346E-1,2.010399957E0
7.206947292E0,-1.863728653E0,-7.035575987E-1,5.674553221E-1,2.071348191E0
7.216966292E0,-1.946871967E0,-6.328290935E-1,3.144480550E-1,2.071149607E0
7.226984292E0,-2.041067103E0,-5.265996569E-1,3.123874962E-2,2.108136138E0
7.237003292E0,-2.144366938E0,-5.167886138E-1,-2.077381235E-1,2.215521420E0
7.247021292E0,-2.197307628E0,-5.492709200E-1,-3.579203492E-1,2.293025585E0
7.257040292E0,-2.143140777E0,-6.061155041E-1,-4.292797691E-1,2.268195211E0
7.267058292E0,-2.042546448E0,-6.585507028E-1,-4.233486459E-1,2.187443507E0
7.277077292E0,-1.900288954E0,-6.460160997E-1,-4.150912079E-1,2.049569618E0
7.287095292E0,-1.693146662E0,-5.551406474E-1,-4.204188985E-1,1.830759079E0
7.297114292E0,-1.432639171E0,-3.879272367E-1,-4.092422381E-1,1.539617402E0
7.307132292E0,-1.051038768E0,-1.499310147E-1,-4.950004265E-1,1.171403954E0
7.317151292E0,-5.100151992E-1,2.414526574E-1,-7.902134809E-1,9.710057850E-1
7.327169292E0,2.342078841E-1,9.274758451E-1,-1.153182901E0,1.498297560E0
7.337188292E0,1.129681479E0,1.705853246E0,-1.341281396E0,2.446456892E0
7.347206292E0,1.891102393E0,2.158762052E0,-1.281187515E0,3.142922733E0
7.357225292E0,2.343313773E0,1.937443331E0,-1.326240019E0,3.317185356E0
7.367243292E0,2.410949101E0,9.735119241E-1,-1.598999765E0,3.052409095E0
7.377262292E0,2.147683479E0,-3.780308973E-1,-1.788772903E0,2.820489352E0
7.387280292E0,1.477649283E0,-1.621444887E0,-1.710244797E0,2.781630492E0
7.397299292E0,6.118970847E-1,-2.406514573E0,-1.645150669E0,2.978632430E0
7.407317292E0,-2.051600862E-1,-2.673126556E0,-1.780238892E0,3.218221055E0
7.417336292E0,-7.681317633E-1,-2.516776688E0,-2.251031553E0,3.462850611E0
7.427354292E0,-8.148077470E-1,-2.106822259E0,-2.878983046E0,3.659392719E0
7.437373292E0,-2.565267062E-1,-1.742223366E0,-3.322016636E0,3.759912597E0
7.447391292E0,6.080542946E-1,-1.575233757E0,-3.140422583E0,3.565577851E0
7.457410292E0,1.432532752E0,-1.505819414E0,-2.601472729E0,3.329760134E0
7.467428292E0,2.222272900E0,-1.301593274E0,-2.067663455E0,3.302707080E0
7.477447292E0,2.949546660E0,-9.454709436E-1,-1.440440818E0,3.415934799E0
7.487465292E0,3.369801836E0,-6.897052525E-1,-6.637791368E-1,3.503121535E0
7.497484292E0,3.268297096E0,-6.527902452E-1,2.868461274E-1,3.345172897E0
7.507503292E0,2.538647028E0,-7.038457203E-1,1.226667491E0,2.906000803E0
7.517521292E0,1.385793033E0,-2.423670888E-1,1.647721982E0,2.166599148E0
7.527540292E0,3.007404274E-1,7.264797805E-1,1.095562684E0,1.348508535E0
7.537558292E0,-4.354789871E-1,1.983851220E0,1.623830259E-1,2.037566161E0
7.547577292E0,-9.194764155E-1,3.011269283E0,6.473715574E-2,3.149185684E0
7.557595292E0,-1.244186919E0,3.433661032E0,7.345149511E-1,3.725257224E0
7.567614292E0,-1.428978229E0,3.415674412E0,1.477666240E0,3.986515770E0
7.577632292E0,-1.556639319E0,3.258255965E0,1.877161169E0,4.069777876E0
7.587651292E0,-1.643043625E0,3.081828219E0,1.992019488E0,4.020621739E0
7.597669292E0,-1.663677279E0,2.948271382E0,2.035712515E0,3.950221725E0
7.607688292E0,-1.668698283E0,2.847232957E0,2.031278279E0,3.875226564E0
7.617706292E0,-1.564895003E0,2.645112838E0,2.037699399E0,3.687510968E0
7.627725292E0,-1.290957043E0,2.411999846E0,1.956833576E0,3.363556300E0
7.637743292E0,-7.737298876E-1,2.271279584E0,1.749269699E0,2.969396129E0
7.647762292E0,-6.149633646E-2,2.204545897E0,1.444257881E0,2.636225566E0
7.657780292E0,6.546320450E-1,2.137594985E0,1.224341761E0,2.548895483E0
7.667799292E0,1.249552324E0,2.044771021E0,1.201257831E0,2.680576415E0
7.677817292E0,1.661655312E0,1.925140059E0,1.271463887E0,2.843217023E0
7.687836292E0,1.991760457E0,1.751724360E0,1.451130113E0,3.023479214E0
7.697854292E0,2.224224116E0,1.557225502E0,1.701157347E0,3.204069366E0
7.707873292E0,2.329029610E0,1.442567158E0,1.873629451E0,3.319015855E0
7.717891292E0,2.259276420E0,1.347043243E0,1.944247152E0,3.270925316E0
7.727910292E0,1.968987306E0,1.236129456E0,1.880218971E0,2.990008431E0
7.737928292E0,1.542476778E0,9.980436981E-1,1.735653288E0,2.527413336E0
7.747947292E0,1.169232631E0,5.522449601E-1,1.583563701E0,2.044444530E0
7.757965292E0,9.080369228E-1,-8.725069930E-2,1.485638626E0,1.743349037E0
7.767984292E0,5.819903308E-1,-6.723838994E-1,1.444912477E0,1.696639301E0
7.778002292E0,2.062880141E-1,-1.091366429E0,1.341311802E0,1.741480054E0
7.788021292E0,-2.003630304E-1,-1.323853478E0,1.113123919E0,1.741200228E0
7.798039292E0,-5.834041876E-1,-1.355036679E0,7.916957501E-1,1.674295974E0
7.808058292E0,-9.381799042E-1,-1.346148911E0,1.788426456E-1,1.650540250E0
7.818076292E0,-1.419946035E0,-1.377756328E0,-1.473565003E0,2.466952180E0
7.828095292E0,-2.069076435E0,-1.093092527E0,-3.128235816E0,3.906633831E0
7.838113292E0,-2.496858732E0,-8.117769890E-2,-2.701908598E0,3.679837418E0
7.848132292E0,-2.304549657E0,9.060260653E-1,-1.518157039E0,2.904588292E0
7.858150292E0,-1.590757822E0,1.275373043E0,-7.297091246E-1,2.165539715E0
7.868169292E0,-7.912206638E-1,1.398441730E0,-3.207457986E-1,1.638458812E0
7.878187292E0,-2.003384721E-1,1.507662748E0,-1.822682369E-1,1.531797694E0
7.888206292E0,1.624572855E-1,1.667936976E0,-1.539311680E-1,1.682884705E0
7.898225292E0,2.741519684E-1,1.880274227E0,-2.128401116E-1,1.912038541E0
7.908243292E0,1.226991427E-1,2.081528081E0,-2.680501065E-1,2.102299952E0
7.918262292E0,-1.516153783E-1,2.156589519E0,-3.802707464E-1,2.195101687E0
7.928280292E0,-4.746617639E-1,2.124438165E0,-4.247148478E-1,2.217864741E0
7.938299292E0,-8.097756332E-1,1.953291479E0,-3.840027317E-1,2.149079402E0
7.948317292E0,-1.116677856E0,1.685669096E0,-3.387566847E-1,2.050172146E0
7.958336292E0,-1.319542910E0,1.423606538E0,-2.515057021E-1,1.957320665E0
7.968354292E0,-1.435592015E0,1.220218597E0,-2.148091614E-1,1.896312430E0
7.978373292E0,-1.459999462E0,1.057643271E0,-2.721297088E-1,1.823255960E0
7.988391292E0,-1.401868783E0,8.995441344E-1,-4.195330453E-1,1.717679746E0
7.998410292E0,-1.229931407E0,7.956049061E-1,-6.331368032E-1,1.595800941E0
8.008428208E0,-9.576218963E-1,7.057197529E-1,-8.937904742E-1,1.487931947E0
8.018447208E0,-6.649360085E-1,6.644448423E-1,-1.104049040E0,1.450017630E0
8.028465208E0,-4.197786283E-1,7.360501376E-1,-1.221241275E0,1.486409820E0
8.038484208E0,-2.871035510E-1,9.470574394E-1,-1.199981968E0,1.555410868E0
8.048502208E0,-2.760575759E-1,1.217010230E0,-1.064776509E0,1.640448322E0
8.058521208E0,-2.880952388E-1,1.437455815E0,-9.165507612E-1,1.728971771E0
8.068539208E0,-2.476307523E-1,1.541511695E0,-7.853371954E-1,1.747665244E0
8.078558208E0,-1.373323846E-1,1.502157302E0,-8.011027506E-1,1.707952682E0
8.088576208E0,7.027476132E-2,1.312052042E0,-1.011088544E0,1.657926159E0
8.098595208E0,4.230285108E-1,1.066005009E0,-1.312747861E0,1.743165725E0
8.108613208E0,9.094016629E-1,1.003136915E0,-1.660576209E0,2.142617185E0
8.118632208E0,1.494203335E0,1.250182654E0,-1.974070290E0,2.773545346E0
8.128650208E0,2.243804687E0,1.709712993E0,-2.227308815E0,3.594256884E0
8.138669208E0,3.073869574E0,2.208631054E0,-2.405797119E0,4.484928658E0
8.148687208E0,3.774716842E0,2.662000474E0,-2.521876044E0,5.262565206E0
8.158706208E0,4.169362383E0,3.031990938E0,-2.558448039E0,5.755189667E0
8.168724208E0,4.105062307E0,3.252178077E0,-2.579822244E0,5.838123123E0
8.178743208E0,3.515434343E0,3.240567845E0,-2.678667670E0,5.480403185E0
8.188761208E0,2.430708012E0,2.908650649E0,-2.754279185E0,4.685578285E0
8.198780208E0,1.103138629E0,2.333235512E0,-2.204906377E0,3.394483012E0
8.208798208E0,-1.315506577E-1,1.764196471E0,-1.158118243E0,2.114457999E0
8.218817208E0,-9.820264202E-1,1.198564603E0,-2.846249163E-1,1.575418783E0
8.228836208E0,-1.410724391E0,7.058966312E-1,2.688260320E-1,1.600218984E0
8.238854208E0,-1.583131884E0,2.980118242E-1,6.354625332E-1,1.731741967E0
8.248873208E0,-1.631060341E0,-6.403168917E-2,9.302475715E-1,1.878781104E0
8.258891208E0,-1.497749087E0,-3.597762555E-1,1.122545830E0,1.905990666E0
8.268910208E0,-1.341723738E0,-5.691068682E-1,1.363023391E0,1.995479386E0
8.278928208E0,-1.278391376E0,-7.329592994E-1,1.668112685E0,2.225783856E0
8.288947208E0,-1.291225430E0,-8.415482336E-1,2.029694853E0,2.548554048E0
8.298965208E0,-1.388986782E0,-9.442408356E-1,2.341086568E0,2.881243023E0
8.308984208E0,-1.449280931E0,-1.147201492E0,2.604147538E0,3.193441855E0
8.319002208E0,-1.410843090E0,-1.359210129E0,2.769476976E0,3.392334464E0
8.329021208E0,-1.160879298E0,-1.554197522E0,2.836842163E0,3.436690870E0
8.339039208E0,-8.280838501E-1,-1.619743055E0,2.872960414E0,3.400469374E0
8.349058208E0,-4.848347497E-1,-1.542253414E0,2.979262794E0,3.389633775E0
8.359076208E0,-9.195038974E-2,-1.287981102E0,3.118726489E0,3.375471094E0
8.369095208E0,4.164211571E-1,-1.074120067E0,3.132018964E0,3.337166956E0
8.379113208E0,1.073372208E0,-8.712708002E-1,2.973344243E0,3.279026790E0
8.389132208E0,1.828925441E0,-5.286838970E-1,2.660834540E0,3.271775570E0
8.399150208E0,2.498287792E0,-8.567926923E-2,2.327508164E0,3.415563948E0
8.409169208E0,2.903332021E0,3.950358430E-1,2.052548110E0,3.577477308E0
8.419187208E0,3.129672477E0,7.377288732E-1,1.746589336E0,3.659189529E0
8.429206208E0,3.256740074E0,8.239519152E-1,1.416385081E0,3.645737150E0
8.439224208E0,3.095552219E0,8.256955549E-1,1.039659501E0,3.368250075E0
8.449243208E0,2.702904671E0,7.247916162E-1,7.782857457E-1,2.904607590E0
8.459261208E0,2.100351437E0,6.865172043E-1,6.476042765E-1,2.302644856E0
8.469280208E0,1.447118631E0,7.750642222E-1,6.504267275E-1,1.765766635E0
8.479298208E0,7.413339740E-1,8.375317812E-1,7.244562784E-1,1.332618642E0
8.489317208E0,3.390157163E-2,1.010783612E0,1.030082932E0,1.443573230E0
8.499335208E0,-6.205024320E-1,1.407397618E0,1.384127162E0,2.069202581E0
8.509354208E0,-9.634515703E-1,1.530749310E0,1.598167414E0,2.413622063E0
8.519372208E0,-1.014693645E0,1.793967277E0,1.424355713E0,2.505336501E0
8.529391208E0,-8.960179710E-1,2.246883831E0,1.173458998E0,2.688557452E0
8.539409208E0,-6.734302586E-1,2.539453067E0,7.708831707E-1,2.737990331E0
8.549428208E0,-4.309345311E-1,2.515363123E0,1.719578415E-1,2.557797042E0
8.559447208E0,-3.189141583E-1,2.288713642E0,-3.819155681E-1,2.342173324E0
8.569465208E0,-3.983813274E-1,1.761364665E0,-6.545577854E-1,1.920822495E0
8.579484208E0,-6.864175093E-1,1.102801829E0,-5.643919659E-1,1.416290635E0
8.589502208E0,-1.162949798E0,4.660985897E-1,-2.551488099E-1,1.278593384E0
8.599521208E0,-1.692966567E0,-1.309830393E-1,6.435620964E-2,1.699245149E0
8.609539208E0,-2.220783030E0,-7.294579867E-1,3.216670275E-1,2.359545697E0
8.619558208E0,-2.644476954E0,-1.280355748E0,5.045094609E-1,2.981123781E0
8.629576208E0,-2.875623820E0,-1.739544025E0,5.839640585E-1,3.411193309E0
8.639595208E0,-2.954495743E0,-2.123499979E0,5.329728296E-1,3.677275798E0
8.649613208E0,-2.875554823E0,-2.503061458E0,3.348516217E-1,3.827042960E0
8.659632208E0,-2.670882980E0,-2.706603035E0,3.065402806E-3,3.802541950E0
8.669650208E0,-2.347687490E0,-2.655991876E0,-3.296549088E-1,3.560140693E0
8.679669208E0,-1.893198035E0,-2.420918604E0,-5.696573836E-1,3.125628772E0
8.689687208E0,-1.248925502E0,-2.135304338E0,-7.245512956E-1,2.577656709E0
8.699706208E0,-4.660757124E-1,-1.854668977E0,-8.465090114E-1,2.091315636E0
8.709724208E0,2.971420509E-1,-1.561678742E0,-8.821577311E-1,1.818058347E0
8.719743208E0,8.405898750E-1,-1.332518467E0,-8.754229081E-1,1.802376784E0
8.729761208E0,1.045110276E0,-1.187679207E0,-8.800869396E-1,1.810356432E0
8.739780208E0,8.969821769E-1,-1.085292342E0,-1.047448870E0,1.754874818E0
8.749798208E0,5.075295478E-1,-1.068084863E0,-1.453067881E0,1.873445431E0
8.759817208E0,8.219606459E-2,-1.086478596E0,-2.003944885E0,2.281005706E0
8.769835208E0,-3.107128537E-1,-1.013823579E0,-2.582470740E0,2.791690500E0
8.779854208E0,-5.475701112E-1,-6.426041032E-1,-3.006421064E0,3.122713672E0
8.789872208E0,-6.283049566E-1,5.970917154E-2,-3.048866588E0,3.113506026E0
8.799891208E0,-5.445143563E-1,7.955487728E-1,-3.036215552E0,3.185592349E0
8.809909208E0,-6.049412370E-1,1.324490532E0,-3.024466157E0,3.356728259E0
8.819928208E0,-9.260866928E-1,1.534040415E0,-2.871071763E0,3.384371378E0
8.829946208E0,-1.297432249E0,1.451266353E0,-2.613693117E0,3.258971645E0
8.839965208E0,-1.359251937E0,1.260779855E0,-2.523139335E0,3.131032382E0
8.849984208E0,-6.884084862E-1,1.059848183E0,-2.986598419E0,3.242985435E0
8.860002208E0,8.755620718E-1,6.954880026E-1,-3.793772626E0,3.955126198E0
8.870021208E0,2.498976009E0,-2.824519448E-2,-4.038956903E0,4.749615958E0
8.880039208E0,3.759005958E0,-8.032951641E-1,-3.528941704E0,5.218125953E0
8.890058208E0,4.548855450E0,-1.416043603E0,-2.490603966E0,5.375906761E0
8.900076208E0,4.774788939E0,-1.827367158E0,-1.178473863E0,5.246587538E0
8.910095208E0,4.497733244E0,-1.949863987E0,1.991900790E-1,4.906246079E0
8.920113208E0,3.850683868E0,-1.818643989E0,1.295813448E0,4.451332913E0
8.930132208E0,3.024944751E0,-1.581436191E0,1.867640733E0,3.890927021E0
8.940150208E0,2.141658508E0,-1.396402514E0,2.126218642E0,3.325273952E0
8.950169208E0,1.224337376E0,-1.197326748E0,2.189078549E0,2.779326941E0
8.960187208E0,2.778930169E-1,-9.547789069E-1,2.130948163E0,2.351545739E0
8.970206208E0,-6.190622628E-1,-6.052979537E-1,2.150501544E0,2.318249467E0
8.980224208E0,-1.367033996E0,-1.770636120E-1,2.286270968E0,2.669675712E0
8.990243208E0,-1.917928249E0,2.824386789E-1,2.454835963E0,3.128008948E0
9.000261208E0,-2.305752429E0,6.684572017E-1,2.543502848E0,3.497532850E0
9.010283833E0,-2.541346103E0,9.411394724E-1,2.505693290E0,3.690891814E0
9.020301833E0,-2.639029103E0,1.101306988E0,2.384010978E0,3.723017598E0
9.030320833E0,-2.633039800E0,1.111123002E0,2.331588936E0,3.688332940E0
9.040338833E0,-2.420276579E0,9.641307244E-1,2.316835826E0,3.486404311E0
9.050357833E0,-1.964465654E0,6.788263616E-1,2.274587939E0,3.081181726E0
9.060375833E0,-1.252183571E0,3.480052257E-1,2.148736562E0,2.511202928E0
9.070394833E0,-4.726386273E-1,2.207002312E-2,2.025750321E0,2.080273713E0
9.080412833E0,1.558429152E-1,-2.756810153E-1,2.003244973E0,2.028121657E0
9.090431833E0,7.826293498E-1,-6.420625779E-1,2.111784790E0,2.341877037E0
9.100449833E0,1.310081531E0,-9.780245858E-1,2.455594347E0,2.950049034E0
9.110468833E0,1.710607617E0,-1.248721434E0,2.823397367E0,3.529455529E0
9.120487833E0,2.132302963E0,-1.365495594E0,3.038936846E0,3.955557014E0
9.130505833E0,2.432196128E0,-1.354913887E0,3.134534729E0,4.192454844E0
9.140524833E0,2.525935181E0,-1.227595737E0,3.040706506E0,4.139231316E0
9.150542833E0,2.326565008E0,-9.873133995E-1,2.636357802E0,3.652132931E0
9.160561833E0,1.809328498E0,-6.852916279E-1,2.006715295E0,2.787507938E0
9.170579833E0,1.168594700E0,-4.445948694E-1,1.366581714E0,1.852248296E0
9.180598833E0,5.095497608E-1,-2.158865475E-1,7.903567377E-1,9.648376718E-1
9.190616833E0,-1.418429267E-1,-2.994139865E-4,4.225551787E-1,4.457268049E-1
9.200635833E0,-7.241835058E-1,3.930849195E-2,3.565222800E-1,8.081429599E-1
9.210653833E0,-1.130475531E0,-1.446677349E-1,4.809641853E-1,1.237024748E0
9.220672833E0,-1.224884090E0,-3.918531304E-1,3.276045826E-1,1.327107634E0
9.230690833E0,-1.230132551E0,-4.621837692E-1,-6.383785397E-2,1.315642505E0
9.240709833E0,-1.062515098E0,-4.923103784E-1,-5.839687362E-1,1.308559256E0
9.250727833E0,-7.327181017E-1,-5.077727554E-1,-1.243003735E0,1.529629783E0
9.260746833E0,-4.331792772E-1,-4.198023461E-1,-1.790889595E0,1.889752322E0
9.270764833E0,-2.786350286E-1,-6.562063348E-2,-2.111162062E0,2.130480884E0
9.280783833E0,-4.628223217E-1,4.595519739E-1,-2.249730256E0,2.342366056E0
9.290801833E0,-8.078109688E-1,8.652943611E-1,-2.374728523E0,2.653418258E0
9.300820833E0,-1.264866766E0,1.150199944E0,-2.401762248E0,2.948102736E0
9.310838833E0,-1.786147796E0,1.392409450E0,-2.064758266E0,3.064694883E0
9.320857833E0,-2.253019314E0,1.668329032E0,-1.451823593E0,3.157088775E0
9.330875833E0,-2.432063397E0,1.908993119E0,-8.277409109E-1,3.200678383E0
9.340894833E0,-2.138071826E0,1.905936779E0,-3.866062045E-1,2.890226720E0
9.350912833E0,-1.545931898E0,1.560103794E0,-2.561849365E-1,2.211212338E0
9.360931833E0,-1.054486286E0,1.167943027E0,-2.162355897E-1,1.588329334E0
9.370949833E0,-7.815002525E-1,8.804003504E-1,-3.302869928E-1,1.222676130E0
9.380968833E0,-6.571896172E-1,5.896607449E-1,-4.333467999E-1,9.835585574E-1
9.390986833E0,-6.515727818E-1,4.367841953E-1,-3.844763562E-1,8.735843358E-1
9.401005833E0,-7.496949077E-1,4.617940888E-1,-2.821094441E-1,9.245982768E-1
9.411024833E0,-8.736219656E-1,6.325931583E-1,-1.407667467E-1,1.087752141E0
9.421042833E0,-8.470732677E-1,8.664082557E-1,8.165782839E-2,1.214439948E0
9.431061833E0,-5.909102583E-1,1.121728754E0,1.583721283E-1,1.277705781E0
9.441079833E0,-1.095768213E-1,1.361556324E0,4.029813319E-2,1.366552832E0
9.451098833E0,4.552595329E-1,1.569539739E0,-2.316169828E-2,1.634396738E0
9.461116833E0,9.601467240E-1,1.739044088E0,1.226336539E-2,1.986531264E0
9.471135833E0,1.275905725E0,1.831678310E0,1.541618407E-2,2.232312368E0
9.481153833E0,1.207876879E0,1.898599693E0,-6.305637360E-3,2.250263787E0
9.491172833E0,7.661191517E-1,1.884399145E0,-1.226155275E-1,2.037874692E0
9.501190833E0,9.827298403E-2,1.703171128E0,-4.832095161E-1,1.773116157E0
9.511209833E0,-5.739486551E-1,1.399210639E0,-1.098816074E0,1.869386059E0
9.521227833E0,-1.182647898E0,1.070212738E0,-1.852321320E0,2.444402918E0
9.531246833E0,-1.674197005E0,7.613986945E-1,-2.676200438E0,3.247262288E0
9.541264833E0,-1.772312699E0,4.745558928E-1,-3.815238924E0,4.233478906E0
9.551283833E0,-1.113988722E0,2.585074505E-1,-5.348244674E0,5.469142352E0
9.561301833E0,1.755006695E-1,1.490367562E-1,-6.106891669E0,6.111230506E0
9.571320833E0,1.534236297E0,1.313242609E-1,-5.397041443E0,5.612413332E0
9.581338833E0,2.681334878E0,3.298329199E-1,-3.824051847E0,4.682063542E0
9.591357833E0,3.636216769E0,7.390149683E-1,-2.411981134E0,4.425592447E0
9.601375833E0,4.251856071E0,1.250684345E0,-1.413544211E0,4.651945681E0
9.611394833E0,4.527432421E0,1.664402919E0,-6.701259971E-1,4.870005160E0
9.621412833E0,4.350862296E0,1.560587359E0,-6.259736717E-3,4.622280261E0
9.631431833E0,3.401880831E0,8.393183979E-1,5.680195785E-1,3.549633051E0
9.641449833E0,1.785305797E0,-5.643791020E-2,9.989710665E-1,2.046569133E0
9.651468833E0,8.503605723E-3,-7.505062088E-1,1.305776811E0,1.506115852E0
9.661486833E0,-1.425029020E0,-1.300809016E0,1.430968329E0,2.402182791E0
9.671505833E0,-2.367089136E0,-1.771632668E0,1.403959748E0,3.273056104E0
9.681523833E0,-2.821737635E0,-2.189846581E0,1.263847597E0,3.788791638E0
9.691542833E0,-2.915136380E0,-2.572209461E0,1.176382314E0,4.061792335E0
9.701561833E0,-2.866191677E0,-2.907229190E0,1.216371129E0,4.259882043E0
9.711579833E0,-2.605915736E0,-3.250144707E0,1.304361784E0,4.365271710E0
9.721598833E0,-2.081769571E0,-3.447643187E0,1.514153158E0,4.302634992E0
9.731616833E0,-1.385750933E0,-3.451913993E0,1.769903354E0,4.119292870E0
9.741635833E0,-5.145456219E-1,-3.417650479E0,2.001204002E0,3.993733773E0
9.751653833E0,5.454031330E-1,-3.364362171E0,2.158728869E0,4.034415413E0
9.761672833E0,1.708721890E0,-3.228495684E0,2.443297360E0,4.394612254E0
9.771690833E0,2.668962754E0,-2.991741337E0,2.818444483E0,4.900766034E0
9.781709833E0,3.428116118E0,-2.593231663E0,2.982704173E0,5.231955157E0
9.791727833E0,3.916761498E0,-1.916570526E0,2.794278233E0,5.179020569E0
9.801746833E0,4.026587411E0,-1.059655809E0,2.302899280E0,4.758111149E0
9.811764833E0,3.630718632E0,-2.771554272E-1,2.022910036E0,4.165464911E0
9.821783833E0,2.933405421E0,4.113545448E-1,1.838150593E0,3.486097751E0
9.831801833E0,2.448299360E0,9.504654890E-1,1.596289873E0,3.073385066E0
9.841820833E0,1.843299651E0,1.403559506E0,1.034801050E0,2.537429034E0
9.851838833E0,9.736637324E-1,1.659485118E0,6.245905128E-1,2.022875485E0
9.861857833E0,7.900173068E-2,1.889249995E0,3.728927296E-1,1.927318294E0
9.871875833E0,-7.880538118E-1,1.925008935E0,2.385412556E-1,2.093702496E0
9.881894833E0,-1.338024205E0,1.799991079E0,4.030368805E-2,2.243189926E0
9.891912833E0,-1.712985095E0,1.736743501E0,2.682761014E-2,2.439531850E0
9.901931833E0,-2.040644349E0,1.817214053E0,1.102317095E-1,2.734711557E0
9.911949833E0,-2.212536117E0,1.902545687E0,1.325628108E-1,2.921056154E0
9.921968833E0,-2.210402468E0,1.869180305E0,2.012240329E-1,2.901758983E0
9.931986833E0,-2.050248401E0,1.754354730E0,3.104985532E-1,2.716190048E0
9.942005833E0,-1.773722463E0,1.495817313E0,4.701927370E-1,2.367412515E0
9.952024833E0,-1.429510326E0,1.054735085E0,6.484453985E-1,1.891149731E0
9.962042833E0,-1.142145989E0,4.799615340E-1,7.740701956E-1,1.460837158E0
9.972061833E0,-1.049722559E0,-2.108864106E-1,7.852196664E-1,1.327765211E0
9.982079833E0,-1.097473261E0,-9.246824840E-1,6.705376410E-1,1.584015778E0
9.992098833E0,-1.322352498E0,-1.626231710E0,5.359055007E-1,2.163432552E0
1.000211683E1,-1.590884707E0,-2.233179566E0,4.738004690E-1,2.782533379E0
1.001213208E1,-1.931871520E0,-2.663182781E0,4.469567791E-1,3.320307284E0
1.002215008E1,-2.380328987E0,-2.887907359E0,3.957877949E-1,3.763326052E0
1.003216908E1,-2.733662195E0,-2.978949383E0,2.325829428E-1,4.049832497E0
1.004218708E1,-2.971933894E0,-2.915607666E0,1.070555019E-1,4.164687265E0
1.005220608E1,-3.000436732E0,-2.720470877E0,6.462927461E-3,4.050138780E0
1.006222408E1,-2.778795683E0,-2.427213131E0,-1.312992275E-1,3.691924772E0
1.007224308E1,-2.162302687E0,-1.943096712E0,-2.551830161E-1,2.918269370E0
1.008226108E1,-1.168667790E0,-1.169543337E0,-3.984079322E-1,1.700689537E0
1.009228008E1,-4.245721757E-2,-2.349565835E-1,-4.897753546E-1,5.448734802E-1
1.010229808E1,1.152685595E0,7.421864980E-1,-6.437375128E-1,1.514570191E0
1.011231708E1,2.232279825E0,1.384468054E0,-1.055054928E0,2.830718268E0
1.012233508E1,2.890861080E0,1.425604093E0,-1.806602526E0,3.695028755E0
1.013235408E1,2.638768902E0,8.438119832E-1,-2.470695073E0,3.712068712E0
1.014237208E1,1.629665780E0,1.297719347E-1,-2.572984217E0,3.048425674E0
1.015239108E1,7.594445550E-1,-3.653047979E-3,-2.511816494E0,2.624117276E0
1.016240908E1,2.777158463E-1,3.156420930E-1,-2.426700623E0,2.462850368E0
1.017242808E1,4.234085798E-2,6.481796426E-1,-2.419707353E0,2.505376872E0
1.018244608E1,-1.600628507E-1,7.200331521E-1,-2.520804542E0,2.626504025E0
1.019246508E1,-3.856800056E-1,3.979103342E-1,-2.542820771E0,2.602502483E0
1.020248408E1,-6.946661764E-1,-4.139416088E-1,-2.426057429E0,2.557276559E0
1.021250208E1,-1.012293363E0,-1.433291135E0,-2.379734910E0,2.956721084E0
1.022252108E1,-1.354940785E0,-2.236483973E0,-2.537448057E0,3.643675031E0
1.023253908E1,-1.671944073E0,-2.728824794E0,-2.854966192E0,4.288672720E0
1.024255808E1,-1.652038397E0,-2.779911040E0,-3.135404502E0,4.504208881E0
1.025257608E1,-7.704127622E-1,-2.372275617E0,-3.473585236E0,4.276332753E0
1.026259508E1,7.916118425E-1,-1.787115218E0,-3.773359996E0,4.249550067E0
1.027261308E1,2.395603668E0,-1.601773392E0,-3.728275917E0,4.712179564E0
1.028263208E1,3.686650173E0,-1.533804188E0,-3.312255294E0,5.187964911E0
1.029265008E1,4.473263816E0,-1.368890341E0,-2.499500504E0,5.303909190E0
1.030266908E1,4.726299734E0,-1.312075724E0,-1.305330376E0,5.075759970E0
1.031268708E1,4.516026843E0,-1.543523430E0,-3.500406414E-2,4.772650030E0
1.032270608E1,3.896355300E0,-1.887544655E0,9.723875776E-1,4.437335580E0
1.033272408E1,2.959847699E0,-2.200789353E0,1.666872783E0,4.047547042E0
1.034274308E1,1.810435960E0,-2.441039165E0,2.130994063E0,3.711803641E0
1.035276108E1,4.902481019E-1,-2.515902236E0,2.611843936E0,3.659485757E0
1.036278008E1,-9.075276303E-1,-2.318692902E0,3.005257469E0,3.902757439E0
1.037279808E1,-2.063183611E0,-1.894736438E0,3.220336771E0,4.268175454E0
1.038281708E1,-2.923082162E0,-1.257967052E0,3.252093000E0,4.550054868E0
1.039283508E1,-3.397918172E0,-5.276842789E-1,3.130569440E0,4.650243394E0
1.040285408E1,-3.483993280E0,1.288930800E-1,2.870340276E0,4.515935773E0
1.041287208E1,-3.324830900E0,6.084065893E-1,2.515981466E0,4.213647094E0
1.042289108E1,-2.859652151E0,8.546360564E-1,2.047194692E0,3.619256736E0
1.043291008E1,-1.916306816E0,6.776680282E-1,1.541400890E0,2.550957169E0
1.044292808E1,-7.062582815E-1,4.598718623E-2,1.169925818E0,1.367348530E0
1.045294708E1,3.943865097E-1,-6.500390571E-1,1.128508528E0,1.360743544E0
1.046296508E1,1.279120524E0,-1.129242353E0,1.446553205E0,2.236929544E0
1.047298408E1,2.105133875E0,-1.472865091E0,1.845456397E0,3.163325706E0
1.048300208E1,2.702034021E0,-1.604612800E0,2.298585789E0,3.893490300E0
1.049302108E1,3.016859806E0,-1.556362453E0,2.782434698E0,4.389265317E0
1.050303908E1,3.174093189E0,-1.555427484E0,3.286780145E0,4.826711712E0
1.051305808E1,3.160860355E0,-1.589835716E0,3.792241240E0,5.186492978E0
1.052307608E1,2.876886234E0,-1.439132212E0,4.108219804E0,5.217762536E0
1.053309508E1,2.192795917E0,-1.013707804E0,4.140569817E0,4.793774697E0
1.054311308E1,1.399990658E0,-6.210406682E-1,3.956376092E0,4.242472997E0
1.055313208E1,7.322585106E-1,-3.979401550E-1,3.595705504E0,3.691023837E0
1.056315008E1,1.615299171E-1,-3.018934252E-1,3.011135674E0,3.030539491E0
1.057316908E1,-3.124073768E-1,-3.793848932E-1,2.192214704E0,2.246627822E0
1.058318708E1,-7.469677663E-1,-4.885217115E-1,1.421472158E0,1.678450894E0
1.059320608E1,-1.193452967E0,-5.568058614E-1,8.719663265E-1,1.579458144E0
1.060322408E1,-1.618524495E0,-5.517753556E-1,6.645673415E-1,1.834591872E0
1.061324308E1,-2.014300303E0,-6.512081348E-1,6.289975592E-1,2.208419271E0
1.062326108E1,-2.225918055E0,-8.349089395E-1,5.492590794E-1,2.439973291E0
1.063328008E1,-2.160203537E0,-9.926096613E-1,3.547999826E-1,2.403671418E0
1.064329808E1,-1.823704462E0,-1.093928168E0,8.062871844E-2,2.128163009E0
1.065331708E1,-1.282415430E0,-1.107009778E0,-2.302516580E-1,1.709700503E0
1.066333508E1,-8.286837745E-1,-8.572351438E-1,-4.661482179E-1,1.280180866E0
1.067335408E1,-2.435932499E-1,-5.006418932E-1,-8.551631829E-1,1.020433264E0
1.068337308E1,-1.998461366E-2,-1.593051977E-2,-1.138638537E0,1.138925319E0
1.069339108E1,-1.754328418E-1,6.397608215E-1,-1.159765989E0,1.336086726E0
1.070341008E1,-5.261552685E-1,1.390291589E0,-1.122563664E0,1.862766557E0
1.071342808E1,-1.122707505E0,2.129551555E0,-1.192222713E0,2.686420847E0
1.072344708E1,-1.759337727E0,2.656599694E0,-1.277586215E0,3.432931358E0
1.073346508E1,-2.274111391E0,2.709256502E0,-1.033367897E0,3.685037669E0
1.074348408E1,-2.546755947E0,2.301873386E0,-5.024874938E-1,3.469449613E0
1.075350208E1,-2.562896601E0,1.821819612E0,-1.476676306E-1,3.147899524E0
1.076352108E1,-2.207847819E0,1.389649272E0,-1.888945940E-1,2.615606672E0
1.077353908E1,-1.614966465E0,1.053939352E0,-5.018761674E-1,1.992682746E0
1.078355808E1,-9.218421990E-1,7.570551635E-1,-8.206605175E-1,1.447898216E0
1.079357608E1,-9.765142500E-2,4.885413728E-1,-1.073358467E0,1.183345627E0
1.080359508E1,7.599696350E-1,3.017552847E-1,-1.290259762E0,1.527540622E0
1.081361308E1,1.404671354E0,3.806519848E-1,-1.316324018E0,1.962321703E0
1.082363208E1,1.734088866E0,7.635385562E-1,-1.092407526E0,2.187100712E0
1.083365008E1,1.845198827E0,1.264979910E0,-6.452624667E-1,2.328367783E0
1.084366908E1,1.834918252E0,1.669130685E0,-1.701794109E-1,2.486339331E0
1.085368708E1,1.708463443E0,1.968969472E0,1.432218464E-1,2.610785440E0
1.086370608E1,1.280164252E0,2.205019229E0,3.396659267E-1,2.572217575E0
1.087372408E1,5.744059074E-1,2.336388915E0,3.658158445E-1,2.433613885E0
1.088374308E1,-1.152638233E-1,2.164003642E0,1.600887246E-1,2.172976280E0
1.089376108E1,-4.906147224E-1,1.671515764E0,-3.555762005E-1,1.777948872E0
1.090378008E1,-4.226560432E-1,1.132162087E0,-1.252321273E0,1.740326893E0
1.091379908E1,1.703194517E-1,8.598468757E-1,-2.404948981E0,2.559711891E0
1.092381708E1,1.166612493E0,9.131473162E-1,-3.928420554E0,4.198489106E0
1.093383608E1,2.193935539E0,1.254310057E0,-6.001393865E0,6.511787404E0
1.094385408E1,2.787202225E0,1.850616564E0,-7.192540691E0,7.932585928E0
1.095387308E1,2.894541317E0,2.329506011E0,-6.067614752E0,7.114837769E0
1.096389108E1,2.850980145E0,2.511750421E0,-3.593104663E0,5.229472161E0
1.097391008E1,2.806151882E0,2.486081729E0,-1.391036232E0,3.998758875E0
1.098392808E1,2.651613480E0,2.220917808E0,9.547816113E-2,3.460151158E0
1.099394708E1,2.168544005E0,1.598678753E0,8.788072765E-1,2.833841754E0
1.100396508E1,1.164826754E0,5.278657253E-1,1.091253286E0,1.681159518E0
1.101398354E1,-7.399417520E-2,-6.516138585E-1,9.640222585E-1,1.165939395E0
1.102400154E1,-1.127723247E0,-1.602721810E0,8.675373530E-1,2.143151414E0
1.103402054E1,-1.771011693E0,-2.349774654E0,7.146107367E-1,3.027968270E0
1.104403854E1,-2.077899883E0,-2.932045943E0,6.059881809E-1,3.644418062E0
1.105405754E1,-2.188251461E0,-3.384116989E0,7.091181546E-1,4.091887194E0
1.106407554E1,-2.163090307E0,-3.686725895E0,9.767370290E-1,4.384623441E0
1.107409454E1,-2.065372809E0,-3.869801632E0,1.217689092E0,4.552350627E0
1.108411254E1,-1.868685923E0,-4.001352582E0,1.359888406E0,4.620833912E0
1.109413154E1,-1.474736200E0,-4.102796803E0,1.462292448E0,4.598487542E0
1.110414954E1,-9.957480812E-1,-4.210864458E0,1.610988311E0,4.617161148E0
1.111416854E1,-4.220198661E-1,-4.281029292E0,1.831934710E0,4.675606629E0
1.112418654E1,2.857978678E-1,-4.243983380E0,2.047751347E0,4.720843244E0
1.113420554E1,8.470481247E-1,-4.014303872E0,2.142200252E0,4.628298610E0
1.114422454E1,1.329587842E0,-3.618113789E0,2.037714309E0,4.360141147E0
1.115424254E1,1.954347632E0,-3.033841582E0,1.853768506E0,4.057108217E0
1.116426154E1,2.718947092E0,-2.191194072E0,1.841649567E0,3.947870043E0
1.117427954E1,3.258968448E0,-9.934653282E-1,2.289043425E0,4.104578968E0
1.118429854E1,3.650723711E0,3.944397193E-1,2.866861475E0,4.658568559E0
1.119431654E1,3.670466834E0,1.399795068E0,2.394102688E0,4.600378321E0
1.120433554E1,3.226028159E0,1.776791959E0,1.402066419E0,3.940816868E0
1.121435354E1,2.403876309E0,2.200358706E0,2.080828169E-1,3.265501217E0
1.122437254E1,1.413127597E0,2.504447249E0,1.295015010E-1,2.878533701E0
1.123439054E1,5.557433492E-1,2.961029714E0,3.844102827E-1,3.037156384E0
1.124440954E1,-2.217550689E-1,3.430012954E0,5.748970735E-1,3.484920490E0
1.125442754E1,-8.867442870E-1,3.715006245E0,1.005518486E0,3.949513167E0
1.126444654E1,-1.400490010E0,3.826168832E0,1.400708988E0,4.308471407E0
1.127446454E1,-1.717858749E0,3.564123816E0,1.541946436E0,4.246365041E0
1.128448354E1,-2.056749920E0,3.077132905E0,1.444704023E0,3.973177175E0
1.129450154E1,-2.351355448E0,2.540763428E0,1.302616391E0,3.698805307E0
1.130452054E1,-2.408434213E0,1.901139577E0,1.136246441E0,3.271993739E0
1.131453854E1,-2.344786102E0,1.246446868E0,1.038573089E0,2.851365588E0
1.132455754E1,-2.226105750E0,4.695974904E-1,9.879081345E-1,2.480328828E0
1.133457554E1,-2.030883007E0,-2.912229145E-1,9.346990567E-1,2.254541838E0
1.134459454E1,-1.813642573E0,-1.015989680E0,8.535630924E-1,2.247243727E0
1.135461354E1,-1.721585180E0,-1.748967690E0,7.962562859E-1,2.580071237E0
1.136463154E1,-1.852779157E0,-2.342605967E0,8.735371810E-1,3.111858051E0
1.137465054E1,-2.008636690E0,-2.783700913E0,8.911279446E-1,3.546508302E0
1.138466854E1,-2.264714330E0,-2.941832428E0,8.590045112E-1,3.810668942E0
1.139468754E1,-2.566404930E0,-3.099648194E0,5.977272347E-1,4.068357290E0
1.140470554E1,-2.825682752E0,-3.136142128E0,-3.450032651E-2,4.221499820E0
1.141472454E1,-3.005858855E0,-2.981288270E0,-1.013673306E0,4.353251747E0
1.142474254E1,-3.052230783E0,-2.703106400E0,-1.999663553E0,4.541095825E0
1.143476154E1,-3.024907329E0,-2.474001966E0,-2.653057450E0,4.723289522E0
1.144477954E1,-2.952385483E0,-2.254995966E0,-2.842478878E0,4.677742299E0
1.145479854E1,-2.613031213E0,-2.038115574E0,-2.649209398E0,4.242659266E0
1.146481654E1,-1.939562947E0,-1.692034813E0,-2.400674958E0,3.519677044E0
1.147483554E1,-7.586627823E-1,-1.069739187E0,-2.364647631E0,2.703972922E0
1.148485354E1,8.260472649E-1,-3.076383877E-1,-2.703199956E0,2.843287791E0
1.149487254E1,2.333148388E0,3.339654762E-1,-3.164569244E0,3.945834873E0
1.150489054E1,3.348184680E0,5.580673251E-1,-3.662398846E0,4.993490272E0
1.151490954E1,3.462230528E0,1.648210955E-1,-3.591202856E0,4.991086472E0
1.152492754E1,2.804091323E0,-5.856287608E-1,-2.936399195E0,4.102234687E0
1.153494654E1,1.899713003E0,-9.928852844E-1,-2.464692614E0,3.266410930E0
1.154496454E1,1.014429935E0,-1.257588152E0,-2.288887889E0,2.801714444E0
1.155498354E1,2.135350531E-1,-1.682293352E0,-2.243689789E0,2.812445913E0
1.156500154E1,-6.215590239E-1,-2.200482666E0,-1.951383094E0,3.006053154E0
1.157502054E1,-1.370186230E0,-2.665318769E0,-1.506641825E0,3.354296354E0
1.158503954E1,-1.639095000E0,-2.899855267E0,-1.275515423E0,3.566893968E0
1.159505754E1,-9.832794785E-1,-2.850372035E0,-1.513879216E0,3.373913092E0
1.160507654E1,2.244997519E-1,-2.726264298E0,-1.745450298E0,3.244921248E0
1.161509454E1,1.183900371E0,-2.677117866E0,-1.523385327E0,3.299891363E0
1.162511354E1,2.062123511E0,-2.421259496E0,-1.185886670E0,3.394286098E0
1.163513154E1,2.910439897E0,-1.957282934E0,-9.328086519E-1,3.629290407E0
1.164515054E1,3.581442391E0,-1.451384467E0,-6.924550518E-1,3.925906325E0
1.165516854E1,3.916170929E0,-1.025743055E0,-1.626014194E-1,4.051540791E0
1.166518754E1,3.992799860E0,-7.988279644E-1,4.136060151E-1,4.092877566E0
1.167520554E1,3.680134621E0,-6.374736831E-1,9.550877130E-1,3.855120758E0
1.168522454E1,2.742979733E0,-4.917880393E-1,1.550151541E0,3.188849807E0
1.169524254E1,1.372429222E0,-2.757628763E-1,1.989766556E0,2.432853896E0
1.170526154E1,-5.979888976E-2,2.464400399E-2,2.181591775E0,2.182550321E0
1.171527954E1,-1.182235084E0,3.747553967E-1,2.178217054E0,2.506541629E0
1.172529854E1,-2.124415069E0,7.189183804E-1,2.061064288E0,3.045975873E0
1.173531654E1,-2.772471335E0,9.299692440E-1,1.871209873E0,3.471723850E0
1.174533554E1,-3.143822739E0,9.374188891E-1,1.885595486E0,3.783892958E0
1.175535354E1,-3.151646898E0,9.356606314E-1,1.895698305E0,3.794998162E0
1.176537254E1,-2.857232573E0,9.175918579E-1,1.797061039E0,3.497882384E0
1.177539054E1,-2.506798999E0,8.260946274E-1,1.839990419E0,3.217458360E0
1.178540954E1,-2.083112091E0,4.932129326E-1,1.839439319E0,2.822437243E0
1.179542854E1,-1.459080280E0,-8.698054880E-2,1.865344824E0,2.369808471E0
1.180544654E1,-6.762363374E-1,-7.183006221E-1,1.855503083E0,2.101462124E0
1.181546554E1,8.078980923E-2,-1.345710370E0,1.945600197E0,2.367028416E0
1.182548354E1,7.011770511E-1,-1.992016565E0,2.125105040E0,2.995972410E0
1.183550254E1,1.410541373E0,-2.620706853E0,2.197982397E0,3.699845671E0
1.184552054E1,2.199224346E0,-3.239106334E0,2.156405039E0,4.469729327E0
1.185553954E1,2.702835090E0,-3.821007787E0,2.090556035E0,5.125996739E0
1.186555754E1,2.951592016E0,-4.425500542E0,2.086295900E0,5.713981192E0
1.187557654E1,2.929820493E0,-4.932992960E0,2.105680590E0,6.111641221E0
1.188559454E1,2.925659029E0,-5.409452743E0,1.812742248E0,6.411528226E0
1.189561354E1,2.540284833E0,-5.379671704E0,1.600870582E0,6.160901014E0
1.190563154E1,1.954669229E0,-4.821137771E0,1.624364694E0,5.450014850E0
1.191565054E1,1.294639619E0,-4.065642718E0,1.826896019E0,4.641453600E0
1.192566854E1,6.336376172E-1,-3.238578038E0,1.863997333E0,3.790035672E0
1.193568754E1,8.274570286E-2,-2.164507526E0,1.751807975E0,2.785816014E0
1.194570554E1,-6.018755418E-1,-9.812842624E-1,1.623117191E0,1.989895069E0
1.195572454E1,-1.197817914E0,2.959690994E-1,1.331424453E0,1.815229059E0
1.196574254E1,-1.534146250E0,1.358053257E0,1.018680861E0,2.288148610E0
1.197576154E1,-1.913638147E0,2.198432048E0,8.408863288E-1,3.033513515E0
1.198578054E1,-2.097260014E0,2.740207861E0,7.543902218E-1,3.532186758E0
1.199579854E1,-2.223618345E0,2.988354338E0,3.858826116E-1,3.744815827E0
1.200581754E1,-2.499584119E0,3.276922324E0,-2.318897554E-1,4.127943016E0
1.201583946E1,-2.823443853E0,3.424404890E0,-8.871120769E-1,4.526074665E0
1.202585846E1,-3.151545156E0,3.239455120E0,-9.449743688E-1,4.617280899E0
1.203587646E1,-3.353713222E0,2.822488418E0,-4.582366428E-1,4.407245632E0
1.204589546E1,-3.230358607E0,2.366251230E0,-9.647788882E-2,4.005454980E0
1.205591346E1,-2.957119973E0,2.034900629E0,-8.363447964E-2,3.590595192E0
1.206593246E1,-2.780580838E0,1.929303861E0,-3.824663758E-3,3.384354859E0
1.207595046E1,-2.675782946E0,1.862448113E0,2.121077478E-1,3.267034901E0
1.208596946E1,-2.603271625E0,1.732291285E0,4.656962281E-1,3.161444168E0
1.209598746E1,-2.536584715E0,1.640679011E0,5.809296459E-1,3.076291418E0
1.210600646E1,-2.497170389E0,1.535581595E0,6.260780445E-1,2.997639822E0
1.211602446E1,-2.305696880E0,1.379680354E0,4.595130900E-1,2.725969234E0
1.212604346E1,-1.946778411E0,1.209955126E0,1.448483956E-1,2.296719105E0
1.213606146E1,-1.478980694E0,9.726769417E-1,-1.163452658E-1,1.773984370E0
1.214608046E1,-9.240050840E-1,6.768580426E-1,-4.244847599E-1,1.221519348E0
1.215609846E1,-3.085172242E-1,3.471010999E-1,-8.444586852E-1,9.637284484E-1
1.216611746E1,3.813776243E-1,3.609745692E-2,-1.378371162E0,1.430614896E0
1.217613546E1,1.087444117E0,-1.970509848E-1,-2.044957255E0,2.324481442E0
1.218615446E1,1.856916647E0,-2.975925788E-1,-2.784873572E0,3.360390094E0
1.219617346E1,2.432368621E0,-5.669050992E-2,-3.463339745E0,4.232535069E0
1.220619146E1,2.034225860E0,6.652894726E-1,-3.829000638E0,4.386562529E0
1.221621046E1,9.513653755E-1,1.359409811E0,-3.862069566E0,4.203412001E0
1.222622846E1,-1.346017349E-1,1.461094061E0,-3.892160800E0,4.159546751E0
1.223624746E1,-4.453280371E-1,7.755793619E-1,-4.366096924E0,4.456752490E0
1.224626546E1,6.010773969E-1,-4.867781449E-2,-4.653900972E0,4.692809161E0
1.225628446E1,2.514554161E0,3.312900826E-2,-3.865124736E0,4.611211271E0
1.226630246E1,4.383262888E0,8.212798107E-1,-2.473598216E0,5.099625692E0
1.227632146E1,5.757306526E0,1.194185185E0,-1.101532691E0,5.982142673E0
1.228633946E1,6.301951275E0,1.234102518E0,-1.530654877E-2,6.421669034E0
1.229635846E1,5.967115733E0,1.185844570E0,1.004342611E0,6.166149657E0
1.230637646E1,4.692735547E0,1.030315066E0,1.993987076E0,5.201855487E0
1.231639546E1,2.495313313E0,6.865623010E-1,2.652440861E0,3.705860068E0
1.232641346E1,1.238837886E-1,9.141113028E-2,2.850404487E0,2.854559323E0
1.233643246E1,-1.818955353E0,-5.590281322E-1,2.711928679E0,3.312954602E0
1.234645046E1,-3.095891942E0,-1.179497710E0,2.384112135E0,4.081636000E0
1.235646946E1,-3.523071976E0,-1.749944906E0,1.846608590E0,4.345607738E0
1.236648746E1,-3.282067289E0,-2.331188255E0,1.369014448E0,4.252129458E0
1.237650646E1,-2.681026729E0,-2.866690444E0,1.204521162E0,4.105689912E0
1.238652546E1,-1.804430870E0,-3.360174395E0,1.253619647E0,4.014760883E0
1.239654346E1,-7.797419947E-1,-3.763500713E0,1.418992062E0,4.097007892E0
1.240656246E1,1.405945462E-1,-3.914607968E0,1.752908421E0,4.291457830E0
1.241658046E1,8.526883489E-1,-3.714913859E0,2.141742123E0,4.372038623E0
1.242659946E1,1.362918141E0,-3.259625383E0,2.525763566E0,4.343061718E0
1.243661746E1,1.773724802E0,-2.665111485E0,2.824432324E0,4.269231413E0
1.244663646E1,2.197323416E0,-1.889744670E0,3.019662961E0,4.185418678E0
1.245665446E1,2.722492844E0,-6.767017758E-1,3.463763960E0,4.457303372E0
1.246667346E1,3.129430987E0,9.358065194E-1,4.135512267E0,5.269870383E0
1.247669146E1,3.100596027E0,2.282433733E0,4.383662545E0,5.834354872E0
1.248671046E1,2.544091371E0,2.865697002E0,3.446331949E0,5.153816461E0
1.249672846E1,1.509864517E0,3.215673909E0,2.091405490E0,4.122405423E0
1.250674746E1,2.336436278E-1,3.550832802E0,9.905604315E-1,3.693807372E0
1.251676546E1,-1.064640561E0,3.348474702E0,6.594334862E-1,3.574995787E0
1.252678446E1,-2.103755686E0,2.999725418E0,4.399959612E-1,3.690221811E0
1.253680246E1,-2.928347579E0,2.739916962E0,1.949891469E-1,4.015019959E0
1.254682146E1,-3.441382281E0,2.417933600E0,-4.179297388E-3,4.205892576E0
1.255684046E1,-3.460993257E0,2.129881046E0,-5.383180618E-2,4.064205391E0
1.256685846E1,-3.134956021E0,1.855748812E0,-1.159599343E-1,3.644886776E0
1.257687746E1,-2.579548302E0,1.518842917E0,-1.970698786E-1,2.999964964E0
1.258689546E1,-1.938176572E0,1.097443587E0,-2.710418344E-1,2.243741190E0
1.259691446E1,-1.334755027E0,7.007912810E-1,-2.141115886E-1,1.522669752E0
1.260693246E1,-8.613638628E-1,4.263203470E-1,-1.811309534E-1,9.780108203E-1
1.261695146E1,-5.701748621E-1,2.524780941E-1,-1.610168239E-1,6.440271571E-1
1.262696946E1,-5.270399523E-1,-1.738640338E-2,-1.530678266E-1,5.490930321E-1
1.263698846E1,-7.257178152E-1,-4.131592879E-1,2.399989665E-3,8.350884410E-1
1.264700646E1,-1.084562609E0,-7.392096806E-1,3.124965468E-1,1.349207581E0
1.265702546E1,-1.517931921E0,-9.643413703E-1,7.141637170E-1,1.934968064E0
1.266704346E1,-1.833610815E0,-1.108924595E0,1.070165302E0,2.395223612E0
1.267706246E1,-1.959855709E0,-1.137935555E0,1.255084082E0,2.590592168E0
1.268708046E1,-1.945079210E0,-1.083879070E0,1.256130734E0,2.556558506E0
1.269709946E1,-1.947745541E0,-1.054750580E0,1.091989743E0,2.469545115E0
1.270711746E1,-1.768276951E0,-1.119988988E0,8.345289436E-1,2.253356888E0
1.271713646E1,-1.424154276E0,-1.163224032E0,5.180176985E-1,1.910405163E0
1.272715446E1,-8.319839430E-1,-1.166967127E0,1.350250733E-1,1.439528161E0
1.273717346E1,-1.043002939E-1,-1.009751066E0,-2.322364953E-1,1.041349873E0
1.274719146E1,6.491502804E-1,-7.799693783E-1,-5.176022539E-1,1.139148985E0
1.275721046E1,1.563820285E0,-6.008484784E-1,-7.456170595E-1,1.833711421E0
1.276722946E1,2.512285441E0,-5.380167110E-1,-8.542118409E-1,2.707529868E0
1.277724746E1,3.198740957E0,-7.400402775E-1,-9.530914736E-1,3.418769761E0
1.278726646E1,3.507244733E0,-1.309376649E0,-1.366085870E0,3.985150365E0
1.279728446E1,3.272798867E0,-2.131704500E0,-1.733863748E0,4.273366354E0
1.280730346E1,2.357057653E0,-2.907827361E0,-1.758531689E0,4.135651634E0
1.281732146E1,1.040200369E0,-3.246244322E0,-1.651946011E0,3.788013282E0
1.282734046E1,-2.566296172E-1,-3.198498298E0,-1.483486558E0,3.535107140E0
1.283735846E1,-1.314297958E0,-3.037985504E0,-1.401092273E0,3.594411579E0
1.284737746E1,-1.837048978E0,-2.903896278E0,-1.572400489E0,3.778863035E0
1.285739546E1,-1.384601371E0,-2.861155470E0,-1.898742658E0,3.702506618E0
1.286741446E1,-1.155240244E-1,-2.816606119E0,-2.224720252E0,3.591099557E0
1.287743246E1,1.327505064E0,-2.750428501E0,-2.311574794E0,3.830209480E0
1.288745146E1,2.517145062E0,-2.642470189E0,-2.022045379E0,4.172209904E0
1.289746946E1,3.225729366E0,-2.444971856E0,-1.328144603E0,4.259951338E0
1.290748846E1,3.338134485E0,-2.174181452E0,-6.439974216E-1,4.035460260E0
1.291750646E1,2.849730595E0,-1.754322863E0,-4.799090552E-1,3.380669442E0
1.292752546E1,1.875629491E0,-1.124851241E0,-6.848302826E-1,2.291782891E0
1.293754446E1,8.111351109E-1,-2.252806476E-1,-8.598891950E-1,1.203370669E0
1.294756246E1,-9.276666105E-2,7.945399819E-1,-7.095195660E-1,1.069260235E0
1.295758146E1,-8.832371271E-1,1.705819186E0,-2.305139056E-1,1.934699868E0
1.296759946E1,-1.601281056E0,2.410516407E0,2.936845922E-1,2.908769673E0
1.297761846E1,-2.214130653E0,2.906703526E0,6.998523644E-1,3.720361980E0
1.298763646E1,-2.559547901E0,3.243711893E0,9.897923997E-1,4.248839994E0
1.299765546E1,-2.567369721E0,3.523261426E0,1.156787709E0,4.510312203E0
1.300767346E1,-2.233530545E0,3.746531509E0,1.216775464E0,4.528321937E0
1.301768854E1,-1.554306280E0,3.965850043E0,1.117285090E0,4.403653091E0
1.302770654E1,-6.306222081E-1,4.113349566E0,9.249733829E-1,4.262969010E0
1.303772554E1,3.291368455E-1,4.188949971E0,7.610387984E-1,4.270223996E0
1.304774354E1,1.229349024E0,4.217101099E0,6.691740704E-1,4.443313475E0
1.305776254E1,1.973479722E0,4.205236221E0,5.937593141E-1,4.683074205E0
1.306778054E1,2.537800936E0,4.093674270E0,4.972255844E-1,4.842090034E0
1.307779954E1,2.990290058E0,3.791790712E0,6.011431780E-1,4.866300911E0
1.308781754E1,3.211328259E0,3.323675491E0,1.012824582E0,4.731306541E0
1.309783654E1,3.241724424E0,2.724068084E0,1.370187107E0,4.450476028E0
1.310785554E1,3.103190437E0,2.006599228E0,1.555440932E0,4.009442336E0
1.311787354E1,2.687885513E0,1.230793579E0,1.613708436E0,3.368031515E0
1.312789254E1,2.012485328E0,4.459577823E-1,1.603663212E0,2.611649141E0
1.313791054E1,1.188664683E0,-2.876484750E-1,1.575380522E0,1.994364351E0
1.314792954E1,4.075953698E-1,-8.497108736E-1,1.428268085E0,1.711166934E0
1.315794754E1,-1.647359455E-1,-1.202150920E0,1.147685349E0,1.670175567E0
1.316796654E1,-5.090153253E-1,-1.337360838E0,7.201144284E-1,1.601934894E0
1.317798454E1,-7.521296883E-1,-1.168802568E0,2.523874623E-1,1.412620948E0
1.318800354E1,-1.030115676E0,-6.068763730E-1,-2.047142360E-1,1.212990172E0
1.319802154E1,-1.281984490E0,2.078070841E-1,-5.042469209E-1,1.393173706E0
1.320804054E1,-1.413727521E0,1.008617803E0,-4.656763476E-1,1.797996062E0
1.321805854E1,-1.396547232E0,1.642553190E0,-2.089575604E-1,2.166099816E0
1.322807754E1,-1.249427778E0,2.030593131E0,7.199968994E-2,2.385280318E0
1.323809554E1,-1.089249737E0,2.193967991E0,3.176821500E-1,2.469996454E0
1.324811454E1,-9.242997837E-1,2.092760582E0,4.819219592E-1,2.337996090E0
1.325813354E1,-7.869767547E-1,1.800036687E0,5.284020612E-1,2.034372932E0
1.326815154E1,-6.559541005E-1,1.375817099E0,5.337201038E-1,1.614932079E0
1.327817054E1,-4.679199243E-1,8.098965244E-1,5.310698533E-1,1.075600588E0
1.328818854E1,-3.724746537E-1,2.323775594E-1,4.953310865E-1,6.618833606E-1
1.329820754E1,-3.279831898E-1,-2.436759880E-1,5.010707134E-1,6.465468427E-1
1.330822554E1,-4.288605237E-1,-6.907536583E-1,5.258088210E-1,9.682648819E-1
1.331824454E1,-7.140128589E-1,-9.491529353E-1,4.996761525E-1,1.288558076E0
1.332826254E1,-1.220334957E0,-9.123023205E-1,4.111791283E-1,1.578157535E0
1.333828154E1,-1.745295054E0,-6.829835857E-1,2.757997137E-1,1.894356589E0
1.334829954E1,-2.147444327E0,-3.366436471E-1,6.578760803E-2,2.174666433E0
1.335831854E1,-2.406095912E0,-1.884411424E-3,-1.919064948E-1,2.413737598E0
1.336833654E1,-2.547240096E0,3.000029473E-1,-4.318063509E-1,2.600940330E0
1.337835554E1,-2.612127233E0,5.622559049E-1,-6.066623649E-1,2.739959783E0
1.338837354E1,-2.631048238E0,8.356399146E-1,-7.726823589E-1,2.866661286E0
1.339839254E1,-2.684256731E0,1.001969519E0,-9.688313010E-1,3.024534874E0
1.340841054E1,-2.705287997E0,1.169673657E0,-1.261315460E0,3.205875278E0
1.341842954E1,-2.625975779E0,1.465239737E0,-1.352767959E0,3.297371291E0
1.342844854E1,-2.285702911E0,1.752888833E0,-1.408573493E0,3.206421112E0
1.343846654E1,-1.482781384E0,1.683826784E0,-1.771334167E0,2.858590213E0
1.344848554E1,-2.770603734E-1,1.033410874E0,-2.371141841E0,2.601348519E0
1.345850354E1,9.159634084E-1,1.751814846E-1,-2.785945951E0,2.937885696E0
1.346852254E1,1.882092419E0,-3.397618941E-1,-2.733067826E0,3.335771239E0
1.347854054E1,2.822658572E0,-3.720642523E-1,-2.357233362E0,3.696266000E0
1.348855954E1,3.809007838E0,-2.818303858E-1,-2.210629340E0,4.413031969E0
1.349857754E1,4.789344413E0,-3.368590439E-1,-2.534014572E0,5.428860265E0
1.350859654E1,4.948934224E0,5.113960192E-2,-2.631203189E0,5.605157932E0
1.351861454E1,4.036482069E0,9.570677264E-1,-1.708859884E0,4.486576449E0
1.352863354E1,3.058603079E0,1.311442470E0,-3.350439951E-1,3.344725493E0
1.353865154E1,1.959073936E0,1.003444552E0,9.988894978E-1,2.417157811E0
1.354867054E1,7.096256930E-1,5.327673000E-1,1.948405691E0,2.140956412E0
1.355868854E1,-2.192752647E-1,1.147486836E-1,2.404536459E0,2.417239021E0
1.356870754E1,-7.644222897E-1,-1.436133175E-1,2.465799492E0,2.585562484E0
1.357872554E1,-1.067835479E0,-2.414871925E-1,2.256250486E0,2.507838697E0
1.358874454E1,-1.083156354E0,-4.440858693E-1,1.949864864E0,2.274293942E0
1.359876254E1,-7.834859669E-1,-9.143761817E-1,1.587302995E0,1.992351590E0
1.360878154E1,-2.775456923E-1,-1.579567129E0,1.291196486E0,2.058944460E0
1.361880054E1,2.616944754E-1,-2.218354389E0,1.149728658E0,2.512261169E0
1.362881854E1,7.729440218E-1,-2.681988596E0,1.174175282E0,3.028067517E0
1.363883754E1,1.229441410E0,-2.872242668E0,1.359727608E0,3.407368969E0
1.364885554E1,1.547882529E0,-2.802227523E0,1.605471171E0,3.581334541E0
1.365887454E1,1.792894898E0,-2.605188927E0,1.786298362E0,3.632126553E0
1.366889254E1,2.020770832E0,-2.317100997E0,1.953302150E0,3.642507526E0
1.367891154E1,1.980220976E0,-1.859751377E0,2.178731024E0,3.482358278E0
1.368892954E1,1.619230839E0,-1.274166032E0,2.359532341E0,3.132538979E0
1.369894854E1,1.310124215E0,-8.277189108E-1,2.833047320E0,3.229195127E0
1.370896654E1,1.257080614E0,-5.205203068E-1,3.262128868E0,3.534498240E0
1.371898554E1,1.161458758E0,-5.497515611E-2,3.076307863E0,3.288719930E0
1.372900354E1,1.033203006E0,4.335366882E-1,2.320563718E0,2.576912587E0
1.373902254E1,6.551021612E-1,8.645523494E-1,1.170896748E0,1.596123053E0
1.374904154E1,1.160555363E-2,1.178961959E0,1.767031494E-1,1.192187063E0
1.375905954E1,-5.975065023E-1,1.343100904E0,-2.752258095E-1,1.495554514E0
1.376907854E1,-1.113263083E0,1.376958914E0,-2.845860323E-1,1.793421242E0
1.377909654E1,-1.476668120E0,1.306817761E0,-1.900131664E-1,1.981016507E0
1.378911554E1,-1.680019662E0,1.281431197E0,-1.328028390E-1,2.117113264E0
1.379913354E1,-1.741906008E0,1.374913411E0,-5.918960989E-2,2.219938477E0
1.380915254E1,-1.763807924E0,1.507699878E0,3.921435177E-2,2.320714347E0
1.381917054E1,-1.723257483E0,1.579225944E0,7.612490058E-2,2.338667556E0
1.382918954E1,-1.614677027E0,1.572001855E0,-4.402690262E-2,2.253954326E0
1.383920754E1,-1.489024456E0,1.497466958E0,-2.124176502E-1,2.122433128E0
1.384922654E1,-1.337216704E0,1.340730881E0,-3.427702135E-1,1.924369827E0
1.385924454E1,-1.228160285E0,1.128341298E0,-3.528508133E-1,1.704709790E0
1.386926354E1,-1.196839090E0,9.014807323E-1,-2.119305772E-1,1.513276540E0
1.387928154E1,-1.192408070E0,6.805558218E-1,7.687129766E-2,1.375100879E0
1.388930054E1,-1.191004738E0,4.073351687E-1,4.076702142E-1,1.323105903E0
1.389931954E1,-1.185552794E0,9.109187230E-2,6.636148301E-1,1.361696662E0
1.390933754E1,-1.137429625E0,-2.837979738E-1,7.599605718E-1,1.397078205E0
1.391935654E1,-1.056651510E0,-7.112529731E-1,7.005920371E-1,1.453692680E0
1.392937454E1,-9.551064241E-1,-1.154339919E0,4.852004930E-1,1.574848706E0
1.393939354E1,-8.368499959E-1,-1.571524137E0,1.228187183E-1,1.784682176E0
1.394941154E1,-6.916156840E-1,-1.918099426E0,-2.978369924E-1,2.060617514E0
1.395943054E1,-4.945329416E-1,-2.191318472E0,-8.151822612E-1,2.389761828E0
1.396944854E1,-2.760470510E-1,-2.300690640E0,-1.342776529E0,2.678138944E0
1.397946754E1,-1.215004635E-1,-2.218843947E0,-1.804034721E0,2.862266951E0
1.398948554E1,-4.271741867E-2,-1.894637912E0,-2.200163409E0,2.903824482E0
1.399950454E1,5.524449348E-3,-1.364729754E0,-2.496843237E0,2.845477811E0
1.400952254E1,-5.124616742E-2,-8.272702101E-1,-2.491605009E0,2.625851803E0
1.401954592E1,-1.202859968E-1,-5.416566758E-1,-2.193159321E0,2.262257387E0
1.402956392E1,-1.192744285E-1,-5.845413248E-1,-1.853671735E0,1.947309387E0
1.403958292E1,-7.827901483E-2,-8.918584080E-1,-1.587777789E0,1.822793826E0
1.404960192E1,-1.003405595E-1,-1.448291436E0,-1.221674261E0,1.897394085E0
1.405961992E1,-4.968320668E-2,-2.032507510E0,-7.463833371E-1,2.165789298E0
1.406963892E1,1.761438632E-1,-2.481435531E0,-3.341362149E-1,2.510019117E0
1.407965692E1,5.343062872E-1,-2.778704174E0,-8.508166552E-2,2.830886608E0
1.408967592E1,9.978817302E-1,-2.902865413E0,-8.724893600E-2,3.070831798E0
1.409969392E1,1.514605440E0,-2.892846502E0,-2.384649494E-1,3.274058041E0
1.410971292E1,1.958338941E0,-2.748550668E0,-3.699121115E-1,3.395063645E0
1.411973092E1,2.283510790E0,-2.549526650E0,-3.683558750E-1,3.442411033E0
1.412974992E1,2.376587353E0,-2.370688682E0,-2.272324482E-1,3.364515844E0
1.413976792E1,2.291020369E0,-2.188303940E0,1.776647240E-2,3.168243064E0
1.414978692E1,2.120805582E0,-1.785965363E0,2.941628945E-1,2.788193036E0
1.415980492E1,1.916616719E0,-9.973031482E-1,4.545821330E-1,2.207867327E0
1.416982392E1,1.673418156E0,8.808011770E-2,5.986008087E-1,1.779440744E0
1.417984192E1,1.092558092E0,1.385094291E0,9.158689758E-1,1.987708570E0
1.418986092E1,1.022619545E-1,2.733931167E0,1.261093266E0,3.012506159E0
1.419987992E1,-1.093224090E0,3.950674764E0,1.461397239E0,4.351856143E0
1.420989792E1,-2.061226548E0,4.863995231E0,1.427678393E0,5.472236296E0
1.421991692E1,-2.602558265E0,5.371662188E0,1.062761266E0,6.062798503E0
1.422993492E1,-2.532220353E0,5.267180631E0,4.445866102E-1,5.861142292E0
1.423995392E1,-1.916060649E0,4.586759441E0,-2.692873773E-1,4.978168968E0
1.424997192E1,-8.643868732E-1,3.632212888E0,-1.395201788E0,3.985815244E0
1.425999092E1,7.887209791E-1,2.172634425E0,-3.561861528E0,4.246089810E0
1.427000892E1,2.255248858E0,1.156047744E0,-4.534024572E0,5.194224930E0
1.428002792E1,2.614350929E0,1.641241659E0,-3.354388868E0,4.558555653E0
1.429004592E1,2.511645756E0,2.684562833E0,-2.094309802E0,4.231001720E0
1.430006492E1,2.346339122E0,3.284289523E0,-1.335235375E0,4.251437222E0
1.431008292E1,2.017154329E0,3.158781378E0,-5.222227237E-1,3.784115214E0
1.432010192E1,1.419739628E0,2.543862160E0,6.554041699E-1,2.986042519E0
1.433012092E1,6.461149907E-1,1.747897358E0,1.626756498E0,2.473650432E0
1.434013892E1,-2.010185033E-1,1.064655179E0,2.278274316E0,2.522782778E0
1.435015792E1,-9.464958143E-1,5.467003744E-1,2.515768335E0,2.742959340E0
1.436017592E1,-1.363164893E0,1.805187865E-1,2.352622832E0,2.725002706E0
1.437019492E1,-1.398211350E0,-8.698924653E-2,1.932729891E0,2.387049840E0
1.438021292E1,-1.239893893E0,-1.275740029E-1,1.398471259E0,1.873321610E0
1.439023192E1,-1.002755384E0,1.559560588E-1,8.318962348E-1,1.312208824E0
1.440024992E1,-7.110939288E-1,7.635858455E-1,3.336435869E-1,1.095461529E0
1.441026892E1,-3.875212938E-1,1.517756504E0,-2.988131851E-2,1.566732413E0
1.442028692E1,-1.150679415E-1,2.260849029E0,-2.925636810E-1,2.282602127E0
1.443030592E1,6.919595003E-3,2.920525759E0,-4.314496708E-1,2.952230920E0
1.444032392E1,-1.976008058E-2,3.400991177E0,-3.641262916E-1,3.420485258E0
1.445034292E1,-1.960723436E-1,3.635860673E0,-1.833967495E-1,3.645759395E0
1.446036192E1,-5.423924017E-1,3.566808272E0,1.248099875E-1,3.609970679E0
1.447037992E1,-9.413941187E-1,3.241219810E0,4.794906870E-1,3.409052663E0
1.448039892E1,-1.283928105E0,2.781994403E0,7.341775668E-1,3.150711179E0
1.449041692E1,-1.495655783E0,2.230762473E0,7.284239066E-1,2.782784365E0
1.450043592E1,-1.594856136E0,1.650803465E0,5.007339138E-1,2.349351533E0
1.451045392E1,-1.626543367E0,1.134645839E0,1.607580847E-1,1.989700396E0
1.452047292E1,-1.614761227E0,7.028953285E-1,-1.973160464E-1,1.772131284E0
1.453049092E1,-1.611777393E0,3.858934289E-1,-4.439884400E-1,1.715769751E0
1.454050992E1,-1.621663281E0,1.296946784E-1,-5.490178818E-1,1.716983733E0
1.455052792E1,-1.646999266E0,-1.330760501E-2,-5.966247422E-1,1.751783308E0
1.456054692E1,-1.656259502E0,-8.028727759E-2,-7.035086283E-1,1.801267879E0
1.457056492E1,-1.670586349E0,-7.088988841E-2,-9.131690240E-1,1.905193374E0
1.458058392E1,-1.693800380E0,1.120577584E-1,-1.155257493E0,2.053323293E0
1.459060292E1,-1.694534206E0,4.661254138E-1,-1.387830788E0,2.239373433E0
1.460062092E1,-1.625466310E0,8.692900559E-1,-1.635862952E0,2.464518923E0
1.461063992E1,-1.562443850E0,1.233588840E0,-1.863155626E0,2.726595148E0
1.462065792E1,-1.496957958E0,1.468441380E0,-2.055729288E0,2.936533010E0
1.463067692E1,-1.436732807E0,1.497394745E0,-1.789628936E0,2.740285370E0
1.464069492E1,-1.350312713E0,1.429863498E0,-1.109989811E0,2.258302776E0
1.465071392E1,-1.193945303E0,1.323157074E0,-5.136852041E-1,1.854756728E0
1.466073192E1,-9.634580022E-1,1.085760411E0,-2.794375589E-1,1.478246374E0
1.467075092E1,-7.298167133E-1,9.717777130E-1,-3.609676257E-1,1.267786254E0
1.468076892E1,-4.192167109E-1,8.667370154E-1,-7.239385074E-1,1.204600626E0
1.469078792E1,1.626128215E-1,4.112892752E-1,-1.107799737E0,1.192821049E0
1.470080692E1,1.098357360E0,-3.261229713E-1,-1.479385614E0,1.871183283E0
1.471082492E1,2.492839941E0,-1.186271783E0,-1.921823372E0,3.363762296E0
1.472084392E1,4.226218954E0,-1.849083717E0,-2.283117857E0,5.147102524E0
1.473086192E1,5.301044780E0,-1.775687712E0,-2.346335906E0,6.062955945E0
1.474088092E1,4.648549308E0,-6.247407863E-1,-1.776047608E0,5.015342144E0
1.475089892E1,3.373354604E0,5.801183447E-1,-7.701204014E-1,3.508438971E0
1.476091792E1,2.317452707E0,1.069361018E0,5.327529743E-1,2.607287051E0
1.477093592E1,1.315613582E0,1.180789945E0,1.979847632E0,2.654223170E0
1.478095492E1,7.483617425E-1,9.674100622E-1,2.762724904E0,3.021353408E0
1.479097292E1,7.887736040E-1,6.163254735E-1,2.597299279E0,2.783520151E0
1.480099192E1,1.084225225E0,3.915922715E-1,1.996090320E0,2.305052149E0
1.481101092E1,1.263590319E0,5.937636995E-1,1.303968852E0,1.910379698E0
1.482102892E1,1.272454698E0,1.036297937E0,7.168429112E-1,1.790787015E0
1.483104792E1,1.112314664E0,1.561833839E0,2.624250850E-1,1.935312837E0
1.484106592E1,7.639200139E-1,1.944266740E0,9.721112967E-2,2.091219010E0
1.485108492E1,2.567050463E-1,1.993125635E0,1.854586239E-1,2.018128385E0
1.486110292E1,-2.949195242E-1,1.731810352E0,4.769782846E-1,1.820344172E0
1.487112192E1,-6.776004928E-1,1.241261411E0,8.977524014E-1,1.675061698E0
1.488113992E1,-7.040480340E-1,5.303363201E-1,1.545799166E0,1.779448035E0
1.489115892E1,-4.059815383E-1,3.400302082E-3,2.312182027E0,2.347555814E0
1.490117692E1,2.672785664E-1,-1.265878335E-1,2.931583428E0,2.946462915E0
1.491119592E1,1.226672754E0,2.410175514E-1,2.924190209E0,3.180205006E0
1.492121492E1,1.982838775E0,8.873398259E-1,1.563482316E0,2.676471282E0
1.493123292E1,2.045650150E0,1.328242106E0,-4.829799215E-2,2.439517232E0
1.494125192E1,1.453626582E0,1.391061375E0,-9.748992491E-1,2.235734898E0
1.495126992E1,5.105648375E-1,1.233834131E0,-1.165322013E0,1.772286238E0
1.496128892E1,-4.462437111E-1,9.620365441E-1,-9.750033295E-1,1.440582956E0
1.497130692E1,-1.205278376E0,7.120528722E-1,-7.359399176E-1,1.581557087E0
1.498132592E1,-1.642203380E0,5.444775188E-1,-5.022775787E-1,1.801546690E0
1.499134392E1,-1.821495969E0,4.677743286E-1,-2.860153842E-1,1.902226376E0
1.500136292E1,-1.870516686E0,3.952779177E-1,-5.060534913E-2,1.912495283E0
1.501138092E1,-1.810366963E0,2.924180853E-1,1.790651321E-1,1.842552903E0
1.502139546E1,-1.646197028E0,1.812049207E-1,2.332050500E-1,1.672478542E0
1.503141446E1,-1.439483337E0,3.026811182E-3,2.723913352E-1,1.465031903E0
1.504143246E1,-1.252042068E0,-2.044467258E-1,2.372039243E-1,1.290609742E0
1.505145146E1,-1.109039054E0,-3.644864801E-1,2.055389857E-1,1.185354079E0
1.506146946E1,-9.648771214E-1,-4.718001366E-1,9.500088215E-2,1.078243199E0
1.507148846E1,-8.483883065E-1,-5.451005396E-1,-6.426433526E-2,1.010458916E0
1.508150646E1,-7.872831488E-1,-6.149010918E-1,-1.737242854E-1,1.013951792E0
1.509152546E1,-7.570618147E-1,-6.634604636E-1,-2.282829370E-1,1.032199340E0
1.510154346E1,-7.511719143E-1,-7.050645724E-1,-2.040759393E-1,1.050248678E0
1.511156246E1,-8.158596611E-1,-7.077993152E-1,-1.839907535E-1,1.095654806E0
1.512158046E1,-9.466987127E-1,-6.763676074E-1,-2.207183576E-1,1.184241608E0
1.513159946E1,-1.092706026E0,-5.927474535E-1,-3.339625525E-1,1.287201224E0
1.514161846E1,-1.229144372E0,-4.644800073E-1,-5.081113458E-1,1.408799029E0
1.515163646E1,-1.278798927E0,-3.702866256E-1,-7.008051682E-1,1.504515458E0
1.516165546E1,-1.247778279E0,-3.540509543E-1,-8.357115430E-1,1.542957062E0
1.517167346E1,-1.167624646E0,-3.665803680E-1,-9.515953173E-1,1.550245829E0
1.518169246E1,-9.827941597E-1,-4.285231394E-1,-1.079038818E0,1.521131556E0
1.519171046E1,-6.734600794E-1,-4.091744104E-1,-1.162034197E0,1.404028365E0
1.520172946E1,-1.984094757E-1,-3.451859906E-1,-1.298876511E0,1.358528572E0
1.521174746E1,4.758721375E-1,-2.648949489E-1,-1.469392430E0,1.567079365E0
1.522176646E1,1.122557817E0,-1.305917144E-1,-1.656049587E0,2.004916577E0
1.523178446E1,1.611307277E0,-2.055910259E-2,-1.894700770E0,2.487292670E0
1.524180346E1,1.800564691E0,-5.319826037E-2,-2.154444614E0,2.808290380E0
1.525182246E1,1.630403699E0,-3.245312861E-1,-2.311221768E0,2.846977843E0
1.526184046E1,1.102779610E0,-7.725610292E-1,-2.155949687E0,2.541867909E0
1.527185946E1,2.588071203E-1,-1.038231027E0,-1.835624011E0,2.124716522E0
1.528187746E1,-6.207374901E-1,-1.027881455E0,-1.597505071E0,1.998468856E0
1.529189646E1,-1.294151376E0,-8.662813711E-1,-1.552341616E0,2.198871458E0
1.530191446E1,-1.510108931E0,-6.777338094E-1,-1.772368832E0,2.425086262E0
1.531193346E1,-1.179851759E0,-4.975220382E-1,-2.224619973E0,2.566809766E0
1.532195146E1,-6.714983386E-1,-3.989835906E-1,-2.558742739E0,2.675306025E0
1.533197046E1,-1.260098362E-1,-4.191898137E-1,-2.668040063E0,2.703707891E0
1.534198946E1,5.686955166E-1,-6.569162598E-1,-2.606385852E0,2.747398910E0
1.535200746E1,1.358694112E0,-1.005540121E0,-2.444805064E0,2.972243669E0
1.536202646E1,2.272140294E0,-1.316120535E0,-2.274371007E0,3.473839124E0
1.537204446E1,3.143087159E0,-1.652663172E0,-2.046531910E0,4.098607728E0
1.538206346E1,3.863165334E0,-2.070766280E0,-1.713668050E0,4.706248779E0
1.539208146E1,4.336419089E0,-2.513688188E0,-1.226514879E0,5.160183870E0
1.540210046E1,4.021744162E0,-2.514529310E0,-4.677557637E-1,4.766138816E0
1.541211846E1,2.736483477E0,-1.668034040E0,3.518117630E-1,3.224042632E0
1.542213746E1,1.139615314E0,-2.437236428E-1,8.825234744E-1,1.461838555E0
1.543215546E1,-8.083190918E-2,1.071273935E0,1.259840207E0,1.655704982E0
1.544217446E1,-7.631049120E-1,1.859483867E0,1.570907402E0,2.551031051E0
1.545219346E1,-8.570825315E-1,2.014683881E0,1.674860079E0,2.756573578E0
1.546221146E1,-4.691361451E-1,1.734225983E0,1.030255717E0,2.071003458E0
1.547223046E1,1.541735351E-2,1.263524099E0,7.263966769E-2,1.265704296E0
1.548224846E1,2.309223336E-1,9.233746080E-1,-5.724611235E-1,1.110701368E0
1.549226746E1,2.958983481E-1,8.406081475E-1,-8.382846102E-1,1.223478229E0
1.550228546E1,3.091259193E-1,9.802943288E-1,-8.032285058E-1,1.304496776E0
1.551230446E1,1.690348184E-1,1.420285758E0,-5.479216750E-1,1.531666598E0
1.552232246E1,-1.203450537E-1,1.876061747E0,-8.788540542E-2,1.881970896E0
1.553234146E1,-3.189322847E-1,2.180280536E0,4.112906639E-1,2.241539879E0
1.554236046E1,-3.626501620E-1,2.449342211E0,8.695324230E-1,2.624286387E0
1.555237846E1,-2.012611628E-1,2.761267193E0,1.293995841E0,3.056064103E0
1.556239746E1,1.260150987E-1,3.052271421E0,1.779763075E0,3.535505231E0
1.557241546E1,5.308523369E-1,3.160445203E0,2.209794942E0,3.892738339E0
1.558243446E1,9.510157120E-1,3.039053498E0,2.432265710E0,4.007018035E0
1.559245246E1,1.142650019E0,2.537995648E0,2.567734002E0,3.786862670E0
1.560247146E1,1.059484486E0,1.841752770E0,2.484449186E0,3.269105138E0
1.561248946E1,8.003861743E-1,1.213352796E0,2.471222492E0,2.867016505E0
1.562250846E1,4.938418007E-1,6.590095630E-1,2.499137392E0,2.631323057E0
1.563252746E1,2.058898187E-1,1.281967131E-1,2.230024846E0,2.243175390E0
1.564254546E1,-2.044876564E-1,-3.139551347E-1,1.750375700E0,1.790027407E0
1.565256446E1,-8.104644352E-1,-6.512266266E-1,1.179054784E0,1.571979295E0
1.566258246E1,-1.525073125E0,-7.553088194E-1,5.942075032E-1,1.802615324E0
1.567260146E1,-2.256141143E0,-5.712899262E-1,6.764629170E-2,2.328330101E0
1.568261946E1,-2.849753984E0,-2.858870744E-1,-4.101893409E-1,2.893282649E0
1.569263846E1,-3.311985152E0,1.129743094E-1,-7.812391743E-1,3.404753074E0
1.570265646E1,-3.585202736E0,5.392930850E-1,-1.036559892E0,3.770805232E0
1.571267546E1,-3.628693156E0,8.695368084E-1,-1.206421507E0,3.921601858E0
1.572269346E1,-3.469668186E0,1.092881443E0,-1.305067543E0,3.864736532E0
1.573271246E1,-3.125550774E0,1.166257275E0,-1.268876933E0,3.569211726E0
1.574273146E1,-2.706104268E0,1.187107861E0,-1.073160539E0,3.143866875E0
1.575274946E1,-2.298349854E0,1.221635962E0,-7.692170066E-1,2.714129930E0
1.576276846E1,-1.892924970E0,1.260586312E0,-4.720761251E-1,2.322735168E0
1.577278646E1,-1.442929101E0,1.303986686E0,-1.686790153E-1,1.952147094E0
1.578280546E1,-1.011361316E0,1.399536037E0,2.809838551E-1,1.749429838E0
1.579282346E1,-6.427464098E-1,1.509656649E0,7.414690447E-1,1.800545053E0
1.580284246E1,-1.777992100E-1,1.505631426E0,9.884855470E-1,1.809873539E0
1.581286146E1,3.885422176E-1,1.346312048E0,1.024487146E0,1.735826921E0
1.582287946E1,1.046825264E0,1.033360004E0,8.695949882E-1,1.708763142E0
1.583289846E1,1.694449421E0,5.818154991E-1,5.344781953E-1,1.869581519E0
1.584291646E1,2.327880047E0,-1.339251389E-1,3.781613633E-2,2.332035917E0
1.585293546E1,2.660450962E0,-7.114531671E-1,8.174275920E-2,2.755149145E0
1.586295346E1,2.715807722E0,-9.452357394E-1,1.306151032E-2,2.875630851E0
1.587297246E1,2.693973634E0,-1.101659868E0,-1.467043018E-1,2.914218687E0
1.588299046E1,2.652317485E0,-1.338930523E0,-3.672822897E-1,2.993729993E0
1.589300946E1,2.546373539E0,-1.630538769E0,-7.558251286E-1,3.116720472E0
1.590302846E1,2.352449462E0,-1.830721998E0,-1.233998730E0,3.226191931E0
1.591304646E1,1.871279163E0,-1.732304295E0,-2.377048699E0,3.486104472E0
1.592306546E1,1.304293957E0,-1.217378312E0,-3.893639853E0,4.282945714E0
1.593308346E1,1.171045852E0,-5.288894997E-1,-5.194538916E0,5.351103348E0
1.594310246E1,1.728588390E0,-1.025667772E-1,-6.867818493E0,7.082758546E0
1.595312046E1,2.215633387E0,1.369584551E-1,-7.094931951E0,7.434100370E0
1.596313946E1,1.560483863E0,5.528185719E-1,-4.152407212E0,4.470257701E0
1.597315746E1,2.822684884E-1,8.705004296E-1,-1.033192188E0,1.380192956E0
1.598317646E1,-8.997034711E-1,7.343994686E-1,1.024248580E0,1.548513503E0
1.599319546E1,-1.598621158E0,2.337044754E-1,2.147069813E0,2.687027386E0
1.600321346E1,-1.966528552E0,-2.805158221E-1,2.642340089E0,3.305735140E0
1.601323246E1,-2.093845240E0,-6.824019340E-1,2.732187527E0,3.509231964E0
1.602325079E1,-1.914528093E0,-9.714938307E-1,2.403052436E0,3.222402690E0
1.603326979E1,-1.471702664E0,-1.303068819E0,1.697912142E0,2.597460822E0
1.604328779E1,-7.286437619E-1,-1.800597143E0,8.985407522E-1,2.140197955E0
1.605330679E1,3.689148688E-1,-2.479816437E0,1.714903566E-1,2.512965715E0
1.606332479E1,1.704777943E0,-3.267433462E0,-5.411951843E-1,3.724953891E0
1.607334379E1,2.880606818E0,-3.885883521E0,-1.061317296E0,4.952209687E0
1.608336279E1,3.518314682E0,-4.078313634E0,-1.123674927E0,5.502165541E0
1.609338079E1,3.433095607E0,-3.622748584E0,-4.242312831E-1,5.009034331E0
1.610339979E1,2.785676687E0,-2.742624807E0,6.893609977E-1,3.969534484E0
1.611341779E1,2.120054215E0,-1.673575738E0,1.580299785E0,3.129350258E0
1.612343679E1,1.612680203E0,-4.387581056E-1,1.842028466E0,2.487230384E0
1.613345479E1,1.148790180E0,6.925468531E-1,1.850034474E0,2.285162484E0
1.614347379E1,6.713603443E-1,1.600693119E0,1.831061721E0,2.523039873E0
1.615349279E1,4.167608804E-1,2.399470139E0,1.778818896E0,3.015848678E0
1.616351079E1,2.130918342E-1,2.924850944E0,1.587843278E0,3.334877427E0
1.617352979E1,-1.627765435E-1,2.959871381E0,1.176654502E0,3.189333882E0
1.618354779E1,-5.325608933E-1,2.721025777E0,7.925339484E-1,2.883697704E0
1.619356679E1,-8.134716582E-1,2.435260216E0,6.347041494E-1,2.644820942E0
1.620358479E1,-9.407614499E-1,2.262101794E0,6.271168023E-1,2.528915206E0
1.621360379E1,-9.676674128E-1,2.095260998E0,6.921050960E-1,2.409462250E0
1.622362179E1,-9.944190091E-1,1.926138909E0,9.258142126E-1,2.357119475E0
1.623364079E1,-9.867433691E-1,1.739841210E0,1.129394381E0,2.297007092E0
1.624365979E1,-9.669973218E-1,1.625617753E0,1.197989822E0,2.238949868E0
1.625367779E1,-1.004801325E0,1.509987163E0,1.237490103E0,2.195693214E0
1.626369679E1,-1.121750316E0,1.338038677E0,1.313005431E0,2.184640596E0
1.627371479E1,-1.322825537E0,1.068839885E0,1.413706471E0,2.211527094E0
1.628373379E1,-1.532647024E0,7.270614322E-1,1.507532063E0,2.269422426E0
1.629375179E1,-1.686431134E0,3.496795759E-1,1.615980957E0,2.361719761E0
1.630377079E1,-1.818120371E0,1.053924076E-2,1.732473572E0,2.511401489E0
1.631378879E1,-1.867726979E0,-3.248250356E-1,1.808227759E0,2.619847897E0
1.632380779E1,-1.765478473E0,-6.620238027E-1,1.757439721E0,2.577553904E0
1.633382679E1,-1.658240538E0,-1.015054637E0,1.647293381E0,2.548268644E0
1.634384479E1,-1.549968815E0,-1.304647129E0,1.452857966E0,2.493051088E0
1.635386379E1,-1.460751414E0,-1.514495366E0,1.181503597E0,2.413180818E0
1.636388179E1,-1.387117428E0,-1.626559008E0,7.803275934E-1,2.275675750E0
1.637390079E1,-1.292811195E0,-1.651499283E0,2.811358827E-1,2.116092638E0
1.638391879E1,-1.089218162E0,-1.585002993E0,-2.776415867E-1,1.943120054E0
1.639393779E1,-8.153439367E-1,-1.443215615E0,-8.117704108E-1,1.845705352E0
1.640395679E1,-4.975577062E-1,-1.183631692E0,-1.233479205E0,1.780454605E0
1.641397479E1,-1.396467125E-1,-8.956680152E-1,-1.529875736E0,1.778269430E0
1.642399379E1,3.110514075E-1,-5.451682211E-1,-1.887251709E0,1.988889233E0
1.643401179E1,8.707872355E-1,-2.261628462E-1,-2.668277460E0,2.815870140E0
1.644403079E1,1.404270819E0,-3.470717177E-1,-3.870859101E0,4.132309946E0
1.645404879E1,1.823388128E0,-1.212038342E0,-4.134004563E0,4.678009719E0
